"AUTDM.response.id","pers","itemid","response","creative","rt","orig.rating","util.rating","orig.rating_s","util.rating_s","trial"
679,467,7265,"p",1,943,2.5,4.5,-0.397146703134846,1.05875909761792,1
680,467,7270,"q",0,2117,1.5,4.5,-1.23050371954895,1.05875909761792,2
681,467,7264,"p",1,1244,2,4,-0.813825211341897,0.591444737290011,3
682,467,7267,"p",1,2274,2.5,4,-0.397146703134846,0.591444737290011,4
683,467,7261,"p",1,1975,2.5,5,-0.397146703134846,1.52607345794583,5
684,467,7268,"p",1,1753,3.5,4,0.436210313279257,0.591444737290011,6
685,467,7262,"q",0,1157,1,5,-1.647182227756,1.52607345794583,7
686,467,7258,"p",1,1520,4.5,1.5,1.26956732969336,-1.74512706434954,8
687,467,7269,"p",1,1902,4,3.5,0.852888821486308,0.124130376962101,9
688,467,7266,"p",1,1636,4.5,1.5,1.26956732969336,-1.74512706434954,10
689,467,7272,"q",0,1811,2,4,-0.813825211341897,0.591444737290011,11
690,467,7259,"p",1,2394,3.5,3,0.436210313279257,-0.343183983365809,12
691,467,7257,"q",0,3678,2,4,-0.813825211341897,0.591444737290011,13
692,467,7260,"p",1,2145,3.5,1.5,0.436210313279257,-1.74512706434954,14
693,467,7263,"p",1,2377,4,4,0.852888821486308,0.591444737290011,15
694,467,7271,"p",1,1579,5,1,1.68624583790041,-2.21244142467745,16
710,467,7281,"p",1,1639,1.5,3,-1.23050371954895,-0.343183983365809,17
711,467,7277,"q",0,1371,1,5,-1.647182227756,1.52607345794583,18
712,467,7279,"p",1,2435,3,4,0.0195318050722055,0.591444737290011,19
713,467,7278,"p",1,1708,2,4,-0.813825211341897,0.591444737290011,20
714,467,7283,"p",1,3657,4,3.5,0.852888821486308,0.124130376962101,21
715,467,7288,"p",1,2612,2,3,-0.813825211341897,-0.343183983365809,22
716,467,7274,"q",0,1799,2,4,-0.813825211341897,0.591444737290011,23
717,467,7284,"p",1,1455,4.5,4,1.26956732969336,0.591444737290011,24
718,467,7282,"p",1,1339,4.5,2,1.26956732969336,-1.27781270402163,25
719,467,7280,"p",1,2529,4.5,2,1.26956732969336,-1.27781270402163,26
720,467,7287,"p",1,1872,4,2,0.852888821486308,-1.27781270402163,27
721,467,7286,"p",1,1867,2,4,-0.813825211341897,0.591444737290011,28
722,467,7285,"p",1,1928,3,4,0.0195318050722055,0.591444737290011,29
723,467,7275,"p",1,3015,4.5,3,1.26956732969336,-0.343183983365809,30
724,467,7273,"q",0,2676,2,4,-0.813825211341897,0.591444737290011,31
725,467,7276,"p",1,2153,3,2.5,0.0195318050722055,-0.810498343693718,32
757,467,7294,"q",0,1629,2,3.5,-0.813825211341897,0.124130376962101,33
758,467,7290,"q",0,1542,2,4,-0.813825211341897,0.591444737290011,34
759,467,7302,"p",1,1743,2,4,-0.813825211341897,0.591444737290011,35
760,467,7292,"q",0,1694,1.5,3.5,-1.23050371954895,0.124130376962101,36
761,467,7297,"p",1,1864,4,3.5,0.852888821486308,0.124130376962101,37
762,467,7296,"p",1,1801,3,1.5,0.0195318050722055,-1.74512706434954,38
763,467,7298,"q",0,2142,2,4,-0.813825211341897,0.591444737290011,39
764,467,7299,"p",1,3209,4.5,2,1.26956732969336,-1.27781270402163,40
765,467,7291,"p",1,1760,4.5,1.5,1.26956732969336,-1.74512706434954,41
766,467,7295,"q",0,2446,4,2.5,0.852888821486308,-0.810498343693718,42
767,467,7304,"p",1,2328,2,3,-0.813825211341897,-0.343183983365809,43
768,467,7303,"p",1,2419,3.5,4,0.436210313279257,0.591444737290011,44
769,467,7289,"q",0,2447,3,2.5,0.0195318050722055,-0.810498343693718,45
770,467,7300,"q",0,1464,1.5,4,-1.23050371954895,0.591444737290011,46
771,467,7293,"p",1,2919,4,3.5,0.852888821486308,0.124130376962101,47
772,467,7301,"p",1,2918,3.5,3.5,0.436210313279257,0.124130376962101,48
837,467,7319,"p",1,1804,4.5,3.5,1.26956732969336,0.124130376962101,49
838,467,7307,"q",0,1490,1.5,3.5,-1.23050371954895,0.124130376962101,50
839,467,7315,"p",1,1098,5,2.5,1.68624583790041,-0.810498343693718,51
840,467,7316,"q",0,1667,2,3,-0.813825211341897,-0.343183983365809,52
841,467,7308,"p",1,1449,4,3.5,0.852888821486308,0.124130376962101,53
842,467,7309,"p",1,1906,3.5,3.5,0.436210313279257,0.124130376962101,54
843,467,7320,"q",0,1741,2,5,-0.813825211341897,1.52607345794583,55
844,467,7305,"p",1,1649,4.5,1.5,1.26956732969336,-1.74512706434954,56
845,467,7310,"p",1,1701,4,4.5,0.852888821486308,1.05875909761792,57
846,467,7311,"q",0,1400,2,3,-0.813825211341897,-0.343183983365809,58
847,467,7306,"p",1,1155,1.5,5,-1.23050371954895,1.52607345794583,59
848,467,7314,"q",0,1768,1,5,-1.647182227756,1.52607345794583,60
849,467,7313,"p",1,1485,3.5,2.5,0.436210313279257,-0.810498343693718,61
850,467,7317,"p",1,1747,2,5,-0.813825211341897,1.52607345794583,62
851,467,7318,"q",0,1163,5,1.5,1.68624583790041,-1.74512706434954,63
852,467,7312,"q",0,2489,1.5,3.5,-1.23050371954895,0.124130376962101,64
726,468,7271,"q",1,8142,5,1,1.68624583790041,-2.21244142467745,1
727,468,7268,"q",1,43,3.5,4,0.436210313279257,0.591444737290011,2
728,468,7263,"q",1,5082,4,4,0.852888821486308,0.591444737290011,3
729,468,7267,"q",1,2507,2.5,4,-0.397146703134846,0.591444737290011,4
730,468,7266,"q",1,3067,4.5,1.5,1.26956732969336,-1.74512706434954,5
731,468,7264,"p",0,1475,2,4,-0.813825211341897,0.591444737290011,6
732,468,7262,"p",0,995,1,5,-1.647182227756,1.52607345794583,7
733,468,7257,"q",1,2762,2,4,-0.813825211341897,0.591444737290011,8
734,468,7259,"q",1,2832,3.5,3,0.436210313279257,-0.343183983365809,9
735,468,7258,"q",1,1906,4.5,1.5,1.26956732969336,-1.74512706434954,10
736,468,7261,"q",1,3274,2.5,5,-0.397146703134846,1.52607345794583,11
737,468,7260,"q",1,3009,3.5,1.5,0.436210313279257,-1.74512706434954,12
738,468,7272,"p",0,2046,2,4,-0.813825211341897,0.591444737290011,13
739,468,7269,"q",1,1969,4,3.5,0.852888821486308,0.124130376962101,14
740,468,7265,"p",0,2250,2.5,4.5,-0.397146703134846,1.05875909761792,15
741,468,7270,"p",0,3210,1.5,4.5,-1.23050371954895,1.05875909761792,16
773,468,7283,"q",1,2453,4,3.5,0.852888821486308,0.124130376962101,17
774,468,7277,"q",1,1025,1,5,-1.647182227756,1.52607345794583,18
775,468,7278,"p",0,4851,2,4,-0.813825211341897,0.591444737290011,19
776,468,7286,"p",0,2111,2,4,-0.813825211341897,0.591444737290011,20
777,468,7279,"p",0,2586,3,4,0.0195318050722055,0.591444737290011,21
778,468,7282,"q",1,1250,4.5,2,1.26956732969336,-1.27781270402163,22
779,468,7287,"q",1,1699,4,2,0.852888821486308,-1.27781270402163,23
780,468,7284,"q",1,4121,4.5,4,1.26956732969336,0.591444737290011,24
781,468,7274,"q",1,1412,2,4,-0.813825211341897,0.591444737290011,25
782,468,7275,"q",1,1748,4.5,3,1.26956732969336,-0.343183983365809,26
783,468,7280,"q",1,3123,4.5,2,1.26956732969336,-1.27781270402163,27
784,468,7285,"q",1,2157,3,4,0.0195318050722055,0.591444737290011,28
785,468,7281,"p",0,1551,1.5,3,-1.23050371954895,-0.343183983365809,29
786,468,7276,"q",1,2637,3,2.5,0.0195318050722055,-0.810498343693718,30
787,468,7288,"q",1,2473,2,3,-0.813825211341897,-0.343183983365809,31
788,468,7273,"p",0,2166,2,4,-0.813825211341897,0.591444737290011,32
965,468,7301,"q",1,7591,3.5,3.5,0.436210313279257,0.124130376962101,33
966,468,7291,"q",1,3882,4.5,1.5,1.26956732969336,-1.74512706434954,34
967,468,7295,"q",1,7908,4,2.5,0.852888821486308,-0.810498343693718,35
968,468,7289,"q",1,2299,3,2.5,0.0195318050722055,-0.810498343693718,36
969,468,7297,"q",1,2107,4,3.5,0.852888821486308,0.124130376962101,37
970,468,7292,"p",0,1578,1.5,3.5,-1.23050371954895,0.124130376962101,38
971,468,7294,"p",0,4770,2,3.5,-0.813825211341897,0.124130376962101,39
972,468,7290,"p",0,1164,2,4,-0.813825211341897,0.591444737290011,40
973,468,7302,"q",1,1749,2,4,-0.813825211341897,0.591444737290011,41
974,468,7300,"p",0,1280,1.5,4,-1.23050371954895,0.591444737290011,42
975,468,7303,"q",1,1467,3.5,4,0.436210313279257,0.591444737290011,43
976,468,7304,"q",1,3538,2,3,-0.813825211341897,-0.343183983365809,44
977,468,7293,"q",1,1440,4,3.5,0.852888821486308,0.124130376962101,45
978,468,7298,"p",0,1070,2,4,-0.813825211341897,0.591444737290011,46
979,468,7299,"q",1,1105,4.5,2,1.26956732969336,-1.27781270402163,47
980,468,7296,"q",1,1013,3,1.5,0.0195318050722055,-1.74512706434954,48
1426,468,7309,"q",1,2187,3.5,3.5,0.436210313279257,0.124130376962101,49
1427,468,7317,"q",1,1204,2,5,-0.813825211341897,1.52607345794583,50
1428,468,7316,"p",0,1013,2,3,-0.813825211341897,-0.343183983365809,51
1429,468,7310,"q",1,1080,4,4.5,0.852888821486308,1.05875909761792,52
1430,468,7308,"q",1,906,4,3.5,0.852888821486308,0.124130376962101,53
1431,468,7313,"p",0,1706,3.5,2.5,0.436210313279257,-0.810498343693718,54
1432,468,7318,"q",1,3383,5,1.5,1.68624583790041,-1.74512706434954,55
1433,468,7315,"q",1,5175,5,2.5,1.68624583790041,-0.810498343693718,56
1434,468,7305,"q",1,6301,4.5,1.5,1.26956732969336,-1.74512706434954,57
1435,468,7312,"p",0,1766,1.5,3.5,-1.23050371954895,0.124130376962101,58
1436,468,7320,"p",0,2305,2,5,-0.813825211341897,1.52607345794583,59
1437,468,7314,"p",0,1359,1,5,-1.647182227756,1.52607345794583,60
1438,468,7306,"q",1,2165,1.5,5,-1.23050371954895,1.52607345794583,61
1439,468,7311,"p",0,1645,2,3,-0.813825211341897,-0.343183983365809,62
1440,468,7307,"p",0,2088,1.5,3.5,-1.23050371954895,0.124130376962101,63
1441,468,7319,"q",1,1405,4.5,3.5,1.26956732969336,0.124130376962101,64
917,469,7263,"q",0,2461,4,4,0.852888821486308,0.591444737290011,1
918,469,7268,"p",1,1738,3.5,4,0.436210313279257,0.591444737290011,2
919,469,7271,"p",1,1678,5,1,1.68624583790041,-2.21244142467745,3
920,469,7264,"p",1,1129,2,4,-0.813825211341897,0.591444737290011,4
921,469,7266,"q",0,1224,4.5,1.5,1.26956732969336,-1.74512706434954,5
922,469,7262,"q",0,1175,1,5,-1.647182227756,1.52607345794583,6
923,469,7259,"q",0,1362,3.5,3,0.436210313279257,-0.343183983365809,7
924,469,7269,"q",0,1811,4,3.5,0.852888821486308,0.124130376962101,8
925,469,7265,"q",0,1385,2.5,4.5,-0.397146703134846,1.05875909761792,9
926,469,7258,"p",1,924,4.5,1.5,1.26956732969336,-1.74512706434954,10
927,469,7260,"p",1,827,3.5,1.5,0.436210313279257,-1.74512706434954,11
928,469,7270,"q",0,1089,1.5,4.5,-1.23050371954895,1.05875909761792,12
929,469,7267,"q",0,1710,2.5,4,-0.397146703134846,0.591444737290011,13
930,469,7257,"q",0,1500,2,4,-0.813825211341897,0.591444737290011,14
931,469,7272,"q",0,1125,2,4,-0.813825211341897,0.591444737290011,15
932,469,7261,"q",0,1696,2.5,5,-0.397146703134846,1.52607345794583,16
1171,469,7280,"p",1,897,4.5,2,1.26956732969336,-1.27781270402163,17
1172,469,7283,"q",0,1461,4,3.5,0.852888821486308,0.124130376962101,18
1173,469,7275,"p",1,1174,4.5,3,1.26956732969336,-0.343183983365809,19
1174,469,7274,"q",0,1282,2,4,-0.813825211341897,0.591444737290011,20
1175,469,7287,"q",0,1564,4,2,0.852888821486308,-1.27781270402163,21
1176,469,7276,"p",1,1294,3,2.5,0.0195318050722055,-0.810498343693718,22
1177,469,7278,"q",0,1090,2,4,-0.813825211341897,0.591444737290011,23
1178,469,7282,"p",1,1421,4.5,2,1.26956732969336,-1.27781270402163,24
1179,469,7273,"q",0,1531,2,4,-0.813825211341897,0.591444737290011,25
1180,469,7285,"q",0,1366,3,4,0.0195318050722055,0.591444737290011,26
1181,469,7284,"p",1,1265,4.5,4,1.26956732969336,0.591444737290011,27
1182,469,7286,"q",0,996,2,4,-0.813825211341897,0.591444737290011,28
1183,469,7277,"q",0,1182,1,5,-1.647182227756,1.52607345794583,29
1184,469,7279,"q",0,1945,3,4,0.0195318050722055,0.591444737290011,30
1185,469,7288,"q",0,1878,2,3,-0.813825211341897,-0.343183983365809,31
1186,469,7281,"q",0,4114,1.5,3,-1.23050371954895,-0.343183983365809,32
1538,469,7292,"q",0,2278,1.5,3.5,-1.23050371954895,0.124130376962101,33
1539,469,7290,"q",0,1358,2,4,-0.813825211341897,0.591444737290011,34
1540,469,7293,"p",1,1059,4,3.5,0.852888821486308,0.124130376962101,35
1541,469,7294,"q",0,959,2,3.5,-0.813825211341897,0.124130376962101,36
1542,469,7301,"p",1,1131,3.5,3.5,0.436210313279257,0.124130376962101,37
1543,469,7295,"q",0,958,4,2.5,0.852888821486308,-0.810498343693718,38
1544,469,7291,"q",0,813,4.5,1.5,1.26956732969336,-1.74512706434954,39
1545,469,7298,"q",0,748,2,4,-0.813825211341897,0.591444737290011,40
1546,469,7300,"q",0,1049,1.5,4,-1.23050371954895,0.591444737290011,41
1547,469,7304,"q",0,1011,2,3,-0.813825211341897,-0.343183983365809,42
1548,469,7302,"q",0,1146,2,4,-0.813825211341897,0.591444737290011,43
1549,469,7299,"p",1,1178,4.5,2,1.26956732969336,-1.27781270402163,44
1550,469,7296,"q",0,765,3,1.5,0.0195318050722055,-1.74512706434954,45
1551,469,7303,"q",0,1528,3.5,4,0.436210313279257,0.591444737290011,46
1552,469,7289,"q",0,984,3,2.5,0.0195318050722055,-0.810498343693718,47
1553,469,7297,"q",0,1194,4,3.5,0.852888821486308,0.124130376962101,48
2126,469,7314,"q",0,1179,1,5,-1.647182227756,1.52607345794583,49
2127,469,7316,"q",0,1309,2,3,-0.813825211341897,-0.343183983365809,50
2128,469,7319,"p",1,971,4.5,3.5,1.26956732969336,0.124130376962101,51
2129,469,7308,"p",1,1412,4,3.5,0.852888821486308,0.124130376962101,52
2130,469,7310,"q",0,914,4,4.5,0.852888821486308,1.05875909761792,53
2131,469,7318,"q",0,3682,5,1.5,1.68624583790041,-1.74512706434954,54
2132,469,7313,"p",1,1579,3.5,2.5,0.436210313279257,-0.810498343693718,55
2133,469,7311,"q",0,768,2,3,-0.813825211341897,-0.343183983365809,56
2134,469,7309,"p",1,1052,3.5,3.5,0.436210313279257,0.124130376962101,57
2135,469,7320,"p",1,982,2,5,-0.813825211341897,1.52607345794583,58
2136,469,7317,"q",0,1265,2,5,-0.813825211341897,1.52607345794583,59
2137,469,7305,"q",0,1140,4.5,1.5,1.26956732969336,-1.74512706434954,60
2138,469,7312,"q",0,2484,1.5,3.5,-1.23050371954895,0.124130376962101,61
2139,469,7307,"q",0,1310,1.5,3.5,-1.23050371954895,0.124130376962101,62
2140,469,7315,"q",0,2266,5,2.5,1.68624583790041,-0.810498343693718,63
2141,469,7306,"q",0,1250,1.5,5,-1.23050371954895,1.52607345794583,64
821,470,7258,"p",0,2138,4.5,1.5,1.26956732969336,-1.74512706434954,1
822,470,7262,"q",1,1196,1,5,-1.647182227756,1.52607345794583,2
823,470,7257,"q",1,4217,2,4,-0.813825211341897,0.591444737290011,3
824,470,7271,"q",1,2734,5,1,1.68624583790041,-2.21244142467745,4
825,470,7266,"q",1,2634,4.5,1.5,1.26956732969336,-1.74512706434954,5
826,470,7272,"p",0,2189,2,4,-0.813825211341897,0.591444737290011,6
827,470,7269,"q",1,1683,4,3.5,0.852888821486308,0.124130376962101,7
828,470,7268,"q",1,2802,3.5,4,0.436210313279257,0.591444737290011,8
829,470,7259,"q",1,3281,3.5,3,0.436210313279257,-0.343183983365809,9
830,470,7261,"q",1,1696,2.5,5,-0.397146703134846,1.52607345794583,10
831,470,7270,"q",1,2204,1.5,4.5,-1.23050371954895,1.05875909761792,11
832,470,7264,"q",1,1596,2,4,-0.813825211341897,0.591444737290011,12
833,470,7265,"p",0,3645,2.5,4.5,-0.397146703134846,1.05875909761792,13
834,470,7263,"q",1,2340,4,4,0.852888821486308,0.591444737290011,14
835,470,7260,"q",1,2014,3.5,1.5,0.436210313279257,-1.74512706434954,15
836,470,7267,"q",1,2505,2.5,4,-0.397146703134846,0.591444737290011,16
1060,470,7278,"p",0,3003,2,4,-0.813825211341897,0.591444737290011,17
1061,470,7283,"q",1,3202,4,3.5,0.852888821486308,0.124130376962101,18
1062,470,7281,"q",1,2403,1.5,3,-1.23050371954895,-0.343183983365809,19
1063,470,7276,"q",1,4248,3,2.5,0.0195318050722055,-0.810498343693718,20
1064,470,7287,"q",1,1728,4,2,0.852888821486308,-1.27781270402163,21
1065,470,7277,"p",0,1473,1,5,-1.647182227756,1.52607345794583,22
1066,470,7288,"q",1,1700,2,3,-0.813825211341897,-0.343183983365809,23
1067,470,7273,"q",1,2732,2,4,-0.813825211341897,0.591444737290011,24
1068,470,7282,"q",1,2282,4.5,2,1.26956732969336,-1.27781270402163,25
1069,470,7279,"q",1,4515,3,4,0.0195318050722055,0.591444737290011,26
1070,470,7284,"q",1,1818,4.5,4,1.26956732969336,0.591444737290011,27
1071,470,7286,"q",1,2619,2,4,-0.813825211341897,0.591444737290011,28
1072,470,7274,"q",1,1864,2,4,-0.813825211341897,0.591444737290011,29
1073,470,7285,"q",1,2761,3,4,0.0195318050722055,0.591444737290011,30
1074,470,7280,"p",0,1327,4.5,2,1.26956732969336,-1.27781270402163,31
1075,470,7275,"q",1,1798,4.5,3,1.26956732969336,-0.343183983365809,32
1713,470,7304,"q",1,2796,2,3,-0.813825211341897,-0.343183983365809,33
1714,470,7295,"p",0,2057,4,2.5,0.852888821486308,-0.810498343693718,34
1715,470,7299,"q",1,3786,4.5,2,1.26956732969336,-1.27781270402163,35
1716,470,7296,"q",1,2333,3,1.5,0.0195318050722055,-1.74512706434954,36
1717,470,7301,"q",1,3193,3.5,3.5,0.436210313279257,0.124130376962101,37
1718,470,7303,"q",1,2421,3.5,4,0.436210313279257,0.591444737290011,38
1719,470,7290,"q",1,2507,2,4,-0.813825211341897,0.591444737290011,39
1720,470,7300,"p",0,2077,1.5,4,-1.23050371954895,0.591444737290011,40
1721,470,7293,"q",1,1643,4,3.5,0.852888821486308,0.124130376962101,41
1722,470,7302,"p",0,4677,2,4,-0.813825211341897,0.591444737290011,42
1723,470,7297,"q",1,1932,4,3.5,0.852888821486308,0.124130376962101,43
1724,470,7289,"q",1,4345,3,2.5,0.0195318050722055,-0.810498343693718,44
1725,470,7298,"q",1,1996,2,4,-0.813825211341897,0.591444737290011,45
1726,470,7291,"p",0,2744,4.5,1.5,1.26956732969336,-1.74512706434954,46
1727,470,7294,"p",0,2540,2,3.5,-0.813825211341897,0.124130376962101,47
1728,470,7292,"p",0,1466,1.5,3.5,-1.23050371954895,0.124130376962101,48
2732,470,7315,"p",0,1377,5,2.5,1.68624583790041,-0.810498343693718,49
2733,470,7310,"q",1,1290,4,4.5,0.852888821486308,1.05875909761792,50
2734,470,7311,"q",1,2505,2,3,-0.813825211341897,-0.343183983365809,51
2735,470,7316,"p",0,5137,2,3,-0.813825211341897,-0.343183983365809,52
2736,470,7318,"p",0,1774,5,1.5,1.68624583790041,-1.74512706434954,53
2737,470,7313,"p",0,2798,3.5,2.5,0.436210313279257,-0.810498343693718,54
2738,470,7314,"q",1,1335,1,5,-1.647182227756,1.52607345794583,55
2739,470,7319,"q",1,1419,4.5,3.5,1.26956732969336,0.124130376962101,56
2740,470,7312,"q",1,2084,1.5,3.5,-1.23050371954895,0.124130376962101,57
2741,470,7307,"q",1,3978,1.5,3.5,-1.23050371954895,0.124130376962101,58
2742,470,7309,"q",1,2624,3.5,3.5,0.436210313279257,0.124130376962101,59
2743,470,7317,"q",1,2408,2,5,-0.813825211341897,1.52607345794583,60
2744,470,7306,"q",1,1018,1.5,5,-1.23050371954895,1.52607345794583,61
2745,470,7320,"q",1,1094,2,5,-0.813825211341897,1.52607345794583,62
2746,470,7305,"q",1,4052,4.5,1.5,1.26956732969336,-1.74512706434954,63
2747,470,7308,"q",1,2464,4,3.5,0.852888821486308,0.124130376962101,64
1155,471,7264,"q",0,2694,2,4,-0.813825211341897,0.591444737290011,1
1156,471,7260,"p",1,2102,3.5,1.5,0.436210313279257,-1.74512706434954,2
1157,471,7265,"q",0,1852,2.5,4.5,-0.397146703134846,1.05875909761792,3
1158,471,7271,"q",0,2361,5,1,1.68624583790041,-2.21244142467745,4
1159,471,7258,"p",1,1197,4.5,1.5,1.26956732969336,-1.74512706434954,5
1160,471,7268,"p",1,2572,3.5,4,0.436210313279257,0.591444737290011,6
1161,471,7269,"p",1,2465,4,3.5,0.852888821486308,0.124130376962101,7
1162,471,7272,"p",1,2174,2,4,-0.813825211341897,0.591444737290011,8
1163,471,7261,"p",1,1900,2.5,5,-0.397146703134846,1.52607345794583,9
1164,471,7270,"p",1,875,1.5,4.5,-1.23050371954895,1.05875909761792,10
1165,471,7267,"p",1,1095,2.5,4,-0.397146703134846,0.591444737290011,11
1166,471,7266,"q",0,934,4.5,1.5,1.26956732969336,-1.74512706434954,12
1167,471,7257,"q",0,2272,2,4,-0.813825211341897,0.591444737290011,13
1168,471,7259,"q",0,1152,3.5,3,0.436210313279257,-0.343183983365809,14
1169,471,7263,"p",1,1727,4,4,0.852888821486308,0.591444737290011,15
1170,471,7262,"q",0,1603,1,5,-1.647182227756,1.52607345794583,16
1873,471,7287,"p",1,2374,4,2,0.852888821486308,-1.27781270402163,17
1874,471,7279,"p",1,2555,3,4,0.0195318050722055,0.591444737290011,18
1875,471,7277,"q",0,1155,1,5,-1.647182227756,1.52607345794583,19
1876,471,7280,"q",0,2968,4.5,2,1.26956732969336,-1.27781270402163,20
1877,471,7282,"q",0,1490,4.5,2,1.26956732969336,-1.27781270402163,21
1878,471,7278,"q",0,2530,2,4,-0.813825211341897,0.591444737290011,22
1879,471,7273,"q",0,3087,2,4,-0.813825211341897,0.591444737290011,23
1880,471,7274,"p",1,2143,2,4,-0.813825211341897,0.591444737290011,24
1881,471,7281,"q",0,1032,1.5,3,-1.23050371954895,-0.343183983365809,25
1882,471,7283,"p",1,3011,4,3.5,0.852888821486308,0.124130376962101,26
1883,471,7284,"p",1,2401,4.5,4,1.26956732969336,0.591444737290011,27
1884,471,7285,"p",1,1503,3,4,0.0195318050722055,0.591444737290011,28
1885,471,7275,"p",1,1795,4.5,3,1.26956732969336,-0.343183983365809,29
1886,471,7276,"q",0,724,3,2.5,0.0195318050722055,-0.810498343693718,30
1887,471,7286,"q",0,775,2,4,-0.813825211341897,0.591444737290011,31
2556,471,7290,"q",0,1444,2,4,-0.813825211341897,0.591444737290011,32
2557,471,7296,"p",1,1062,3,1.5,0.0195318050722055,-1.74512706434954,33
2558,471,7301,"p",1,1106,3.5,3.5,0.436210313279257,0.124130376962101,34
2559,471,7302,"p",1,737,2,4,-0.813825211341897,0.591444737290011,35
2560,471,7304,"q",0,626,2,3,-0.813825211341897,-0.343183983365809,36
2561,471,7294,"p",1,921,2,3.5,-0.813825211341897,0.124130376962101,37
2562,471,7295,"p",1,1743,4,2.5,0.852888821486308,-0.810498343693718,38
2563,471,7303,"q",0,1053,3.5,4,0.436210313279257,0.591444737290011,39
2564,471,7300,"q",0,1048,1.5,4,-1.23050371954895,0.591444737290011,40
2565,471,7291,"q",0,1542,4.5,1.5,1.26956732969336,-1.74512706434954,41
2566,471,7298,"q",0,973,2,4,-0.813825211341897,0.591444737290011,42
2567,471,7297,"p",1,1879,4,3.5,0.852888821486308,0.124130376962101,43
2568,471,7293,"p",1,1345,4,3.5,0.852888821486308,0.124130376962101,44
2569,471,7289,"p",1,1427,3,2.5,0.0195318050722055,-0.810498343693718,45
2570,471,7299,"q",0,1879,4.5,2,1.26956732969336,-1.27781270402163,46
2571,471,7292,"q",0,909,1.5,3.5,-1.23050371954895,0.124130376962101,47
3559,471,7313,"p",1,2031,3.5,2.5,0.436210313279257,-0.810498343693718,48
3560,471,7305,"p",1,1252,4.5,1.5,1.26956732969336,-1.74512706434954,49
3561,471,7306,"q",0,3009,1.5,5,-1.23050371954895,1.52607345794583,50
3562,471,7308,"p",1,1179,4,3.5,0.852888821486308,0.124130376962101,51
3563,471,7320,"q",0,770,2,5,-0.813825211341897,1.52607345794583,52
3564,471,7307,"q",0,2009,1.5,3.5,-1.23050371954895,0.124130376962101,53
3565,471,7319,"p",1,3504,4.5,3.5,1.26956732969336,0.124130376962101,54
3566,471,7316,"q",0,1598,2,3,-0.813825211341897,-0.343183983365809,55
3567,471,7311,"p",1,1021,2,3,-0.813825211341897,-0.343183983365809,56
3568,471,7312,"q",0,1048,1.5,3.5,-1.23050371954895,0.124130376962101,57
3569,471,7309,"p",1,1920,3.5,3.5,0.436210313279257,0.124130376962101,58
3570,471,7317,"p",1,1705,2,5,-0.813825211341897,1.52607345794583,59
3571,471,7315,"q",0,1499,5,2.5,1.68624583790041,-0.810498343693718,60
3572,471,7310,"p",1,1323,4,4.5,0.852888821486308,1.05875909761792,61
3573,471,7318,"p",1,2751,5,1.5,1.68624583790041,-1.74512706434954,62
3574,471,7314,"q",0,1642,1,5,-1.647182227756,1.52607345794583,63
789,472,7258,"p",0,436,4.5,1.5,1.26956732969336,-1.74512706434954,1
790,472,7265,"p",0,836,2.5,4.5,-0.397146703134846,1.05875909761792,2
791,472,7272,"q",1,1187,2,4,-0.813825211341897,0.591444737290011,3
792,472,7263,"q",1,1187,4,4,0.852888821486308,0.591444737290011,4
793,472,7268,"p",0,1508,3.5,4,0.436210313279257,0.591444737290011,5
794,472,7266,"p",0,1621,4.5,1.5,1.26956732969336,-1.74512706434954,6
795,472,7270,"q",1,1173,1.5,4.5,-1.23050371954895,1.05875909761792,7
796,472,7261,"q",1,2198,2.5,5,-0.397146703134846,1.52607345794583,8
797,472,7264,"q",1,914,2,4,-0.813825211341897,0.591444737290011,9
798,472,7262,"q",1,754,1,5,-1.647182227756,1.52607345794583,10
799,472,7259,"p",0,1395,3.5,3,0.436210313279257,-0.343183983365809,11
800,472,7257,"q",1,1591,2,4,-0.813825211341897,0.591444737290011,12
801,472,7269,"q",1,1274,4,3.5,0.852888821486308,0.124130376962101,13
802,472,7271,"q",1,988,5,1,1.68624583790041,-2.21244142467745,14
803,472,7260,"p",0,1645,3.5,1.5,0.436210313279257,-1.74512706434954,15
804,472,7267,"q",1,1652,2.5,4,-0.397146703134846,0.591444737290011,16
885,472,7287,"p",0,1617,4,2,0.852888821486308,-1.27781270402163,17
886,472,7284,"p",0,1308,4.5,4,1.26956732969336,0.591444737290011,18
887,472,7282,"p",0,913,4.5,2,1.26956732969336,-1.27781270402163,19
888,472,7288,"q",1,849,2,3,-0.813825211341897,-0.343183983365809,20
889,472,7274,"q",1,688,2,4,-0.813825211341897,0.591444737290011,21
890,472,7273,"q",1,1217,2,4,-0.813825211341897,0.591444737290011,22
891,472,7285,"q",1,826,3,4,0.0195318050722055,0.591444737290011,23
892,472,7286,"q",1,589,2,4,-0.813825211341897,0.591444737290011,24
893,472,7283,"q",1,1762,4,3.5,0.852888821486308,0.124130376962101,25
894,472,7278,"q",1,1142,2,4,-0.813825211341897,0.591444737290011,26
895,472,7277,"q",1,1027,1,5,-1.647182227756,1.52607345794583,27
896,472,7279,"q",1,1104,3,4,0.0195318050722055,0.591444737290011,28
897,472,7281,"p",0,1318,1.5,3,-1.23050371954895,-0.343183983365809,29
898,472,7276,"p",0,1634,3,2.5,0.0195318050722055,-0.810498343693718,30
899,472,7275,"q",1,1275,4.5,3,1.26956732969336,-0.343183983365809,31
900,472,7280,"p",0,970,4.5,2,1.26956732969336,-1.27781270402163,32
1076,472,7292,"p",0,796,1.5,3.5,-1.23050371954895,0.124130376962101,33
1077,472,7290,"q",1,696,2,4,-0.813825211341897,0.591444737290011,34
1078,472,7302,"q",1,718,2,4,-0.813825211341897,0.591444737290011,35
1079,472,7289,"q",1,690,3,2.5,0.0195318050722055,-0.810498343693718,36
1080,472,7297,"q",1,1109,4,3.5,0.852888821486308,0.124130376962101,37
1081,472,7294,"q",1,1005,2,3.5,-0.813825211341897,0.124130376962101,38
1082,472,7296,"q",1,250,3,1.5,0.0195318050722055,-1.74512706434954,39
1083,472,7295,"p",0,750,4,2.5,0.852888821486308,-0.810498343693718,40
1084,472,7298,"q",1,750,2,4,-0.813825211341897,0.591444737290011,41
1085,472,7293,"q",1,1097,4,3.5,0.852888821486308,0.124130376962101,42
1086,472,7300,"q",1,1062,1.5,4,-1.23050371954895,0.591444737290011,43
1087,472,7299,"q",1,856,4.5,2,1.26956732969336,-1.27781270402163,44
1088,472,7291,"q",1,642,4.5,1.5,1.26956732969336,-1.74512706434954,45
1089,472,7301,"p",0,1088,3.5,3.5,0.436210313279257,0.124130376962101,46
1090,472,7304,"p",0,1513,2,3,-0.813825211341897,-0.343183983365809,47
1091,472,7303,"q",1,932,3.5,4,0.436210313279257,0.591444737290011,48
1347,472,7316,"q",1,1325,2,3,-0.813825211341897,-0.343183983365809,49
1348,472,7309,"q",1,1122,3.5,3.5,0.436210313279257,0.124130376962101,50
1349,472,7319,"q",1,1161,4.5,3.5,1.26956732969336,0.124130376962101,51
1350,472,7311,"q",1,1047,2,3,-0.813825211341897,-0.343183983365809,52
1351,472,7320,"q",1,1415,2,5,-0.813825211341897,1.52607345794583,53
1352,472,7315,"p",0,773,5,2.5,1.68624583790041,-0.810498343693718,54
1353,472,7313,"q",1,1082,3.5,2.5,0.436210313279257,-0.810498343693718,55
1354,472,7305,"q",1,1580,4.5,1.5,1.26956732969336,-1.74512706434954,56
1355,472,7308,"q",1,923,4,3.5,0.852888821486308,0.124130376962101,57
1356,472,7306,"q",1,1163,1.5,5,-1.23050371954895,1.52607345794583,58
1357,472,7310,"q",1,32,4,4.5,0.852888821486308,1.05875909761792,59
1358,472,7317,"q",1,654,2,5,-0.813825211341897,1.52607345794583,60
1359,472,7314,"q",1,810,1,5,-1.647182227756,1.52607345794583,61
1360,472,7318,"q",1,570,5,1.5,1.68624583790041,-1.74512706434954,62
1361,472,7307,"q",1,1590,1.5,3.5,-1.23050371954895,0.124130376962101,63
1362,472,7312,"p",0,1784,1.5,3.5,-1.23050371954895,0.124130376962101,64
901,473,7259,"p",1,5933,3.5,3,0.436210313279257,-0.343183983365809,1
902,473,7261,"q",0,4998,2.5,5,-0.397146703134846,1.52607345794583,2
903,473,7260,"p",1,2837,3.5,1.5,0.436210313279257,-1.74512706434954,3
904,473,7271,"p",1,1186,5,1,1.68624583790041,-2.21244142467745,4
905,473,7265,"q",0,3644,2.5,4.5,-0.397146703134846,1.05875909761792,5
906,473,7272,"p",1,1839,2,4,-0.813825211341897,0.591444737290011,6
907,473,7257,"p",1,3647,2,4,-0.813825211341897,0.591444737290011,7
908,473,7267,"p",1,1780,2.5,4,-0.397146703134846,0.591444737290011,8
909,473,7266,"p",1,2482,4.5,1.5,1.26956732969336,-1.74512706434954,9
910,473,7258,"p",1,1749,4.5,1.5,1.26956732969336,-1.74512706434954,10
911,473,7264,"q",0,1607,2,4,-0.813825211341897,0.591444737290011,11
912,473,7268,"p",1,1497,3.5,4,0.436210313279257,0.591444737290011,12
913,473,7263,"p",1,2504,4,4,0.852888821486308,0.591444737290011,13
914,473,7270,"q",0,1899,1.5,4.5,-1.23050371954895,1.05875909761792,14
915,473,7269,"p",1,1816,4,3.5,0.852888821486308,0.124130376962101,15
916,473,7262,"q",0,1080,1,5,-1.647182227756,1.52607345794583,16
1482,473,7287,"p",1,2079,4,2,0.852888821486308,-1.27781270402163,17
1484,473,7280,"p",1,4017,4.5,2,1.26956732969336,-1.27781270402163,18
1486,473,7276,"p",1,2625,3,2.5,0.0195318050722055,-0.810498343693718,19
1488,473,7285,"p",1,2268,3,4,0.0195318050722055,0.591444737290011,20
1490,473,7273,"p",1,5535,2,4,-0.813825211341897,0.591444737290011,21
1491,473,7283,"p",1,2613,4,3.5,0.852888821486308,0.124130376962101,22
1493,473,7275,"p",1,2273,4.5,3,1.26956732969336,-0.343183983365809,23
1495,473,7286,"q",0,6356,2,4,-0.813825211341897,0.591444737290011,24
1497,473,7277,"q",0,1532,1,5,-1.647182227756,1.52607345794583,25
1499,473,7278,"p",1,6560,2,4,-0.813825211341897,0.591444737290011,26
1500,473,7279,"q",0,8234,3,4,0.0195318050722055,0.591444737290011,27
1501,473,7274,"q",0,1751,2,4,-0.813825211341897,0.591444737290011,28
1502,473,7282,"p",1,2126,4.5,2,1.26956732969336,-1.27781270402163,29
1503,473,7284,"p",1,1890,4.5,4,1.26956732969336,0.591444737290011,30
1504,473,7281,"q",0,2396,1.5,3,-1.23050371954895,-0.343183983365809,31
1505,473,7288,"p",1,1885,2,3,-0.813825211341897,-0.343183983365809,32
2333,473,7304,"q",0,3795,2,3,-0.813825211341897,-0.343183983365809,33
2334,473,7301,"p",1,2293,3.5,3.5,0.436210313279257,0.124130376962101,34
2335,473,7299,"p",1,1533,4.5,2,1.26956732969336,-1.27781270402163,35
2336,473,7289,"q",0,1405,3,2.5,0.0195318050722055,-0.810498343693718,36
2337,473,7303,"q",0,2938,3.5,4,0.436210313279257,0.591444737290011,37
2338,473,7302,"q",0,1197,2,4,-0.813825211341897,0.591444737290011,38
2339,473,7298,"q",0,901,2,4,-0.813825211341897,0.591444737290011,39
2340,473,7294,"q",0,2992,2,3.5,-0.813825211341897,0.124130376962101,40
2341,473,7300,"q",0,1523,1.5,4,-1.23050371954895,0.591444737290011,41
2342,473,7297,"p",1,3364,4,3.5,0.852888821486308,0.124130376962101,42
2343,473,7293,"q",0,1153,4,3.5,0.852888821486308,0.124130376962101,43
2344,473,7296,"p",1,3319,3,1.5,0.0195318050722055,-1.74512706434954,44
2345,473,7290,"q",0,2180,2,4,-0.813825211341897,0.591444737290011,45
2346,473,7295,"q",0,2013,4,2.5,0.852888821486308,-0.810498343693718,46
2347,473,7291,"p",1,3072,4.5,1.5,1.26956732969336,-1.74512706434954,47
2348,473,7292,"q",0,1971,1.5,3.5,-1.23050371954895,0.124130376962101,48
3575,473,7317,"p",1,1144,2,5,-0.813825211341897,1.52607345794583,49
3576,473,7307,"p",1,1831,1.5,3.5,-1.23050371954895,0.124130376962101,50
3577,473,7305,"p",1,1692,4.5,1.5,1.26956732969336,-1.74512706434954,51
3578,473,7315,"p",1,5890,5,2.5,1.68624583790041,-0.810498343693718,52
3579,473,7311,"q",0,1511,2,3,-0.813825211341897,-0.343183983365809,53
3580,473,7308,"p",1,1621,4,3.5,0.852888821486308,0.124130376962101,54
3581,473,7316,"p",1,3657,2,3,-0.813825211341897,-0.343183983365809,55
3582,473,7312,"q",0,5765,1.5,3.5,-1.23050371954895,0.124130376962101,56
3583,473,7306,"p",1,1249,1.5,5,-1.23050371954895,1.52607345794583,57
3584,473,7320,"q",0,1462,2,5,-0.813825211341897,1.52607345794583,58
3585,473,7319,"p",1,1662,4.5,3.5,1.26956732969336,0.124130376962101,59
3586,473,7313,"p",1,1719,3.5,2.5,0.436210313279257,-0.810498343693718,60
3587,473,7310,"p",1,1211,4,4.5,0.852888821486308,1.05875909761792,61
3588,473,7309,"p",1,2156,3.5,3.5,0.436210313279257,0.124130376962101,62
3589,473,7318,"p",1,1883,5,1.5,1.68624583790041,-1.74512706434954,63
3590,473,7314,"q",0,1114,1,5,-1.647182227756,1.52607345794583,64
853,474,7257,"q",1,3162,2,4,-0.813825211341897,0.591444737290011,1
854,474,7263,"q",1,2367,4,4,0.852888821486308,0.591444737290011,2
855,474,7269,"p",0,2013,4,3.5,0.852888821486308,0.124130376962101,3
856,474,7265,"p",0,1036,2.5,4.5,-0.397146703134846,1.05875909761792,4
857,474,7271,"q",1,3582,5,1,1.68624583790041,-2.21244142467745,5
858,474,7267,"q",1,2183,2.5,4,-0.397146703134846,0.591444737290011,6
859,474,7259,"p",0,2402,3.5,3,0.436210313279257,-0.343183983365809,7
860,474,7266,"p",0,1245,4.5,1.5,1.26956732969336,-1.74512706434954,8
861,474,7272,"p",0,780,2,4,-0.813825211341897,0.591444737290011,9
862,474,7262,"p",0,872,1,5,-1.647182227756,1.52607345794583,10
863,474,7270,"p",0,829,1.5,4.5,-1.23050371954895,1.05875909761792,11
864,474,7268,"p",0,1293,3.5,4,0.436210313279257,0.591444737290011,12
865,474,7261,"q",1,1130,2.5,5,-0.397146703134846,1.52607345794583,13
866,474,7260,"p",0,1062,3.5,1.5,0.436210313279257,-1.74512706434954,14
867,474,7264,"q",1,1022,2,4,-0.813825211341897,0.591444737290011,15
868,474,7258,"q",1,2092,4.5,1.5,1.26956732969336,-1.74512706434954,16
981,474,7276,"p",0,2299,3,2.5,0.0195318050722055,-0.810498343693718,17
982,474,7284,"q",1,1157,4.5,4,1.26956732969336,0.591444737290011,18
983,474,7273,"q",1,1708,2,4,-0.813825211341897,0.591444737290011,19
984,474,7281,"p",0,999,1.5,3,-1.23050371954895,-0.343183983365809,20
985,474,7278,"p",0,1586,2,4,-0.813825211341897,0.591444737290011,21
986,474,7285,"q",1,1117,3,4,0.0195318050722055,0.591444737290011,22
987,474,7275,"q",1,1635,4.5,3,1.26956732969336,-0.343183983365809,23
988,474,7280,"p",0,1381,4.5,2,1.26956732969336,-1.27781270402163,24
989,474,7287,"q",1,875,4,2,0.852888821486308,-1.27781270402163,25
990,474,7279,"p",0,1980,3,4,0.0195318050722055,0.591444737290011,26
991,474,7277,"q",1,877,1,5,-1.647182227756,1.52607345794583,27
992,474,7283,"q",1,1736,4,3.5,0.852888821486308,0.124130376962101,28
993,474,7282,"p",0,1568,4.5,2,1.26956732969336,-1.27781270402163,29
994,474,7274,"p",0,1018,2,4,-0.813825211341897,0.591444737290011,30
995,474,7288,"q",1,928,2,3,-0.813825211341897,-0.343183983365809,31
996,474,7286,"p",0,811,2,4,-0.813825211341897,0.591444737290011,32
1235,474,7297,"q",1,1379,4,3.5,0.852888821486308,0.124130376962101,33
1236,474,7293,"p",0,1158,4,3.5,0.852888821486308,0.124130376962101,34
1237,474,7302,"p",0,1073,2,4,-0.813825211341897,0.591444737290011,35
1238,474,7301,"p",0,5965,3.5,3.5,0.436210313279257,0.124130376962101,36
1239,474,7300,"p",0,1115,1.5,4,-1.23050371954895,0.591444737290011,37
1240,474,7303,"q",1,952,3.5,4,0.436210313279257,0.591444737290011,38
1241,474,7290,"q",1,1083,2,4,-0.813825211341897,0.591444737290011,39
1242,474,7298,"q",1,868,2,4,-0.813825211341897,0.591444737290011,40
1243,474,7289,"q",1,981,3,2.5,0.0195318050722055,-0.810498343693718,41
1244,474,7299,"q",1,1050,4.5,2,1.26956732969336,-1.27781270402163,42
1245,474,7294,"q",1,1320,2,3.5,-0.813825211341897,0.124130376962101,43
1246,474,7295,"q",1,1364,4,2.5,0.852888821486308,-0.810498343693718,44
1247,474,7292,"p",0,660,1.5,3.5,-1.23050371954895,0.124130376962101,45
1248,474,7296,"q",1,952,3,1.5,0.0195318050722055,-1.74512706434954,46
1249,474,7291,"p",0,1355,4.5,1.5,1.26956732969336,-1.74512706434954,47
1250,474,7304,"p",0,926,2,3,-0.813825211341897,-0.343183983365809,48
1777,474,7318,"p",0,1360,5,1.5,1.68624583790041,-1.74512706434954,49
1778,474,7316,"p",0,869,2,3,-0.813825211341897,-0.343183983365809,50
1779,474,7308,"q",1,1024,4,3.5,0.852888821486308,0.124130376962101,51
1780,474,7312,"p",0,1244,1.5,3.5,-1.23050371954895,0.124130376962101,52
1781,474,7311,"p",0,697,2,3,-0.813825211341897,-0.343183983365809,53
1782,474,7307,"q",1,1495,1.5,3.5,-1.23050371954895,0.124130376962101,54
1783,474,7313,"q",1,1084,3.5,2.5,0.436210313279257,-0.810498343693718,55
1784,474,7317,"q",1,927,2,5,-0.813825211341897,1.52607345794583,56
1785,474,7305,"q",1,1115,4.5,1.5,1.26956732969336,-1.74512706434954,57
1786,474,7306,"p",0,952,1.5,5,-1.23050371954895,1.52607345794583,58
1787,474,7310,"p",0,1460,4,4.5,0.852888821486308,1.05875909761792,59
1788,474,7309,"q",1,1018,3.5,3.5,0.436210313279257,0.124130376962101,60
1789,474,7320,"q",1,1161,2,5,-0.813825211341897,1.52607345794583,61
1790,474,7319,"p",0,1114,4.5,3.5,1.26956732969336,0.124130376962101,62
1791,474,7314,"p",0,1606,1,5,-1.647182227756,1.52607345794583,63
1792,474,7315,"p",0,976,5,2.5,1.68624583790041,-0.810498343693718,64
1108,475,7258,"q",0,2665,4.5,1.5,1.26956732969336,-1.74512706434954,1
1109,475,7272,"p",1,1701,2,4,-0.813825211341897,0.591444737290011,2
1110,475,7265,"p",1,8714,2.5,4.5,-0.397146703134846,1.05875909761792,3
1111,475,7261,"q",0,4050,2.5,5,-0.397146703134846,1.52607345794583,4
1112,475,7264,"q",0,1415,2,4,-0.813825211341897,0.591444737290011,5
1113,475,7269,"p",1,2284,4,3.5,0.852888821486308,0.124130376962101,6
1114,475,7260,"q",0,1163,3.5,1.5,0.436210313279257,-1.74512706434954,7
1115,475,7259,"p",1,2619,3.5,3,0.436210313279257,-0.343183983365809,8
1116,475,7266,"p",1,2946,4.5,1.5,1.26956732969336,-1.74512706434954,9
1117,475,7268,"p",1,1903,3.5,4,0.436210313279257,0.591444737290011,10
1118,475,7270,"q",0,1693,1.5,4.5,-1.23050371954895,1.05875909761792,11
1119,475,7271,"q",0,2603,5,1,1.68624583790041,-2.21244142467745,12
1120,475,7267,"p",1,1287,2.5,4,-0.397146703134846,0.591444737290011,13
1121,475,7257,"p",1,1946,2,4,-0.813825211341897,0.591444737290011,14
1122,475,7262,"q",0,1992,1,5,-1.647182227756,1.52607345794583,15
1123,475,7263,"p",1,2815,4,4,0.852888821486308,0.591444737290011,16
1602,475,7288,"p",1,1898,2,3,-0.813825211341897,-0.343183983365809,17
1603,475,7282,"q",0,1566,4.5,2,1.26956732969336,-1.27781270402163,18
1604,475,7281,"p",1,2467,1.5,3,-1.23050371954895,-0.343183983365809,19
1605,475,7279,"p",1,2598,3,4,0.0195318050722055,0.591444737290011,20
1606,475,7274,"p",1,928,2,4,-0.813825211341897,0.591444737290011,21
1607,475,7275,"p",1,2073,4.5,3,1.26956732969336,-0.343183983365809,22
1608,475,7280,"p",1,3036,4.5,2,1.26956732969336,-1.27781270402163,23
1609,475,7287,"q",0,1878,4,2,0.852888821486308,-1.27781270402163,24
1610,475,7278,"q",0,1880,2,4,-0.813825211341897,0.591444737290011,25
1611,475,7277,"q",0,1687,1,5,-1.647182227756,1.52607345794583,26
1612,475,7284,"p",1,1842,4.5,4,1.26956732969336,0.591444737290011,27
1613,475,7285,"p",1,1538,3,4,0.0195318050722055,0.591444737290011,28
1614,475,7283,"p",1,2058,4,3.5,0.852888821486308,0.124130376962101,29
1615,475,7273,"p",1,1597,2,4,-0.813825211341897,0.591444737290011,30
1616,475,7286,"p",1,1541,2,4,-0.813825211341897,0.591444737290011,31
1617,475,7276,"p",1,1659,3,2.5,0.0195318050722055,-0.810498343693718,32
2445,475,7292,"q",0,1945,1.5,3.5,-1.23050371954895,0.124130376962101,33
2446,475,7289,"p",1,1186,3,2.5,0.0195318050722055,-0.810498343693718,34
2447,475,7295,"p",1,1632,4,2.5,0.852888821486308,-0.810498343693718,35
2448,475,7297,"p",1,2362,4,3.5,0.852888821486308,0.124130376962101,36
2449,475,7299,"p",1,1232,4.5,2,1.26956732969336,-1.27781270402163,37
2450,475,7294,"q",0,2115,2,3.5,-0.813825211341897,0.124130376962101,38
2451,475,7290,"p",1,1003,2,4,-0.813825211341897,0.591444737290011,39
2452,475,7302,"p",1,1494,2,4,-0.813825211341897,0.591444737290011,40
2453,475,7293,"p",1,1053,4,3.5,0.852888821486308,0.124130376962101,41
2454,475,7298,"q",0,2688,2,4,-0.813825211341897,0.591444737290011,42
2455,475,7296,"p",1,1277,3,1.5,0.0195318050722055,-1.74512706434954,43
2456,475,7304,"q",0,5911,2,3,-0.813825211341897,-0.343183983365809,44
2457,475,7300,"p",1,4278,1.5,4,-1.23050371954895,0.591444737290011,45
2458,475,7303,"p",1,3273,3.5,4,0.436210313279257,0.591444737290011,46
2459,475,7291,"p",1,1752,4.5,1.5,1.26956732969336,-1.74512706434954,47
2460,475,7301,"p",1,1332,3.5,3.5,0.436210313279257,0.124130376962101,48
3623,475,7309,"p",1,3093,3.5,3.5,0.436210313279257,0.124130376962101,49
3624,475,7305,"p",1,1603,4.5,1.5,1.26956732969336,-1.74512706434954,50
3625,475,7308,"p",1,1765,4,3.5,0.852888821486308,0.124130376962101,51
3626,475,7320,"p",1,955,2,5,-0.813825211341897,1.52607345794583,52
3627,475,7315,"q",0,1051,5,2.5,1.68624583790041,-0.810498343693718,53
3628,475,7314,"p",1,1193,1,5,-1.647182227756,1.52607345794583,54
3629,475,7311,"p",1,3950,2,3,-0.813825211341897,-0.343183983365809,55
3630,475,7312,"q",0,1725,1.5,3.5,-1.23050371954895,0.124130376962101,56
3631,475,7306,"p",1,1395,1.5,5,-1.23050371954895,1.52607345794583,57
3632,475,7316,"q",0,2931,2,3,-0.813825211341897,-0.343183983365809,58
3633,475,7307,"q",0,2760,1.5,3.5,-1.23050371954895,0.124130376962101,59
3634,475,7313,"p",1,1468,3.5,2.5,0.436210313279257,-0.810498343693718,60
3635,475,7317,"p",1,1051,2,5,-0.813825211341897,1.52607345794583,61
3636,475,7310,"p",1,3251,4,4.5,0.852888821486308,1.05875909761792,62
3637,475,7318,"p",1,1526,5,1.5,1.68624583790041,-1.74512706434954,63
3638,475,7319,"p",1,1881,4.5,3.5,1.26956732969336,0.124130376962101,64
997,476,7261,"q",1,3181,2.5,5,-0.397146703134846,1.52607345794583,1
998,476,7271,"q",1,1699,5,1,1.68624583790041,-2.21244142467745,2
999,476,7264,"p",0,1786,2,4,-0.813825211341897,0.591444737290011,3
1000,476,7272,"p",0,2306,2,4,-0.813825211341897,0.591444737290011,4
1001,476,7269,"q",1,1451,4,3.5,0.852888821486308,0.124130376962101,5
1002,476,7266,"q",1,2659,4.5,1.5,1.26956732969336,-1.74512706434954,6
1003,476,7265,"p",0,1221,2.5,4.5,-0.397146703134846,1.05875909761792,7
1004,476,7258,"q",1,2754,4.5,1.5,1.26956732969336,-1.74512706434954,8
1005,476,7267,"p",0,3049,2.5,4,-0.397146703134846,0.591444737290011,9
1006,476,7262,"p",0,1859,1,5,-1.647182227756,1.52607345794583,10
1007,476,7268,"p",0,2603,3.5,4,0.436210313279257,0.591444737290011,11
1008,476,7263,"q",1,1654,4,4,0.852888821486308,0.591444737290011,12
1009,476,7260,"q",1,1803,3.5,1.5,0.436210313279257,-1.74512706434954,13
1010,476,7257,"q",1,3370,2,4,-0.813825211341897,0.591444737290011,14
1011,476,7270,"p",0,1763,1.5,4.5,-1.23050371954895,1.05875909761792,15
1570,476,7274,"p",0,3388,2,4,-0.813825211341897,0.591444737290011,16
1571,476,7275,"q",1,1385,4.5,3,1.26956732969336,-0.343183983365809,17
1572,476,7285,"q",1,1556,3,4,0.0195318050722055,0.591444737290011,18
1573,476,7281,"p",0,1814,1.5,3,-1.23050371954895,-0.343183983365809,19
1574,476,7279,"q",1,1814,3,4,0.0195318050722055,0.591444737290011,20
1575,476,7280,"q",1,2912,4.5,2,1.26956732969336,-1.27781270402163,21
1576,476,7283,"q",1,2122,4,3.5,0.852888821486308,0.124130376962101,22
1577,476,7287,"q",1,1954,4,2,0.852888821486308,-1.27781270402163,23
1578,476,7273,"p",0,3098,2,4,-0.813825211341897,0.591444737290011,24
1579,476,7286,"p",0,2497,2,4,-0.813825211341897,0.591444737290011,25
1580,476,7276,"q",1,1197,3,2.5,0.0195318050722055,-0.810498343693718,26
1581,476,7288,"q",1,2156,2,3,-0.813825211341897,-0.343183983365809,27
1582,476,7277,"p",0,2051,1,5,-1.647182227756,1.52607345794583,28
1583,476,7282,"q",1,1697,4.5,2,1.26956732969336,-1.27781270402163,29
1584,476,7278,"p",0,7369,2,4,-0.813825211341897,0.591444737290011,30
1585,476,7284,"q",1,1467,4.5,4,1.26956732969336,0.591444737290011,31
2080,476,7299,"q",1,2493,4.5,2,1.26956732969336,-1.27781270402163,32
2081,476,7301,"q",1,1392,3.5,3.5,0.436210313279257,0.124130376962101,33
2082,476,7294,"p",0,1792,2,3.5,-0.813825211341897,0.124130376962101,34
2083,476,7298,"p",0,1450,2,4,-0.813825211341897,0.591444737290011,35
2084,476,7297,"q",1,1312,4,3.5,0.852888821486308,0.124130376962101,36
2085,476,7293,"q",1,2003,4,3.5,0.852888821486308,0.124130376962101,37
2086,476,7300,"p",0,1203,1.5,4,-1.23050371954895,0.591444737290011,38
2087,476,7302,"q",1,1170,2,4,-0.813825211341897,0.591444737290011,39
2088,476,7303,"q",1,2167,3.5,4,0.436210313279257,0.591444737290011,40
2089,476,7296,"q",1,921,3,1.5,0.0195318050722055,-1.74512706434954,41
2090,476,7290,"p",0,906,2,4,-0.813825211341897,0.591444737290011,42
2091,476,7295,"q",1,1140,4,2.5,0.852888821486308,-0.810498343693718,43
2092,476,7292,"p",0,1024,1.5,3.5,-1.23050371954895,0.124130376962101,44
2093,476,7291,"q",1,1021,4.5,1.5,1.26956732969336,-1.74512706434954,45
2094,476,7289,"q",1,1168,3,2.5,0.0195318050722055,-0.810498343693718,46
2095,476,7304,"p",0,1742,2,3,-0.813825211341897,-0.343183983365809,47
3224,476,7305,"q",1,1469,4.5,1.5,1.26956732969336,-1.74512706434954,48
3225,476,7306,"q",1,1184,1.5,5,-1.23050371954895,1.52607345794583,49
3226,476,7310,"q",1,1218,4,4.5,0.852888821486308,1.05875909761792,50
3227,476,7313,"q",1,3330,3.5,2.5,0.436210313279257,-0.810498343693718,51
3228,476,7308,"q",1,1012,4,3.5,0.852888821486308,0.124130376962101,52
3229,476,7316,"p",0,2087,2,3,-0.813825211341897,-0.343183983365809,53
3230,476,7318,"q",1,2652,5,1.5,1.68624583790041,-1.74512706434954,54
3231,476,7311,"p",0,5879,2,3,-0.813825211341897,-0.343183983365809,55
3232,476,7314,"p",0,1327,1,5,-1.647182227756,1.52607345794583,56
3233,476,7307,"p",0,1778,1.5,3.5,-1.23050371954895,0.124130376962101,57
3234,476,7312,"p",0,1077,1.5,3.5,-1.23050371954895,0.124130376962101,58
3235,476,7320,"q",1,2189,2,5,-0.813825211341897,1.52607345794583,59
3236,476,7317,"p",0,1519,2,5,-0.813825211341897,1.52607345794583,60
3237,476,7315,"q",1,1042,5,2.5,1.68624583790041,-0.810498343693718,61
3238,476,7319,"q",1,4352,4.5,3.5,1.26956732969336,0.124130376962101,62
3239,476,7309,"q",1,1441,3.5,3.5,0.436210313279257,0.124130376962101,63
1028,477,7257,"p",1,5871,2,4,-0.813825211341897,0.591444737290011,1
1029,477,7258,"p",1,5689,4.5,1.5,1.26956732969336,-1.74512706434954,2
1030,477,7264,"p",1,2543,2,4,-0.813825211341897,0.591444737290011,3
1031,477,7270,"q",0,2111,1.5,4.5,-1.23050371954895,1.05875909761792,4
1032,477,7271,"p",1,2387,5,1,1.68624583790041,-2.21244142467745,5
1033,477,7266,"p",1,915,4.5,1.5,1.26956732969336,-1.74512706434954,6
1034,477,7260,"p",1,1413,3.5,1.5,0.436210313279257,-1.74512706434954,7
1035,477,7269,"p",1,1457,4,3.5,0.852888821486308,0.124130376962101,8
1036,477,7267,"p",1,5138,2.5,4,-0.397146703134846,0.591444737290011,9
1037,477,7259,"p",1,3453,3.5,3,0.436210313279257,-0.343183983365809,10
1038,477,7268,"p",1,1269,3.5,4,0.436210313279257,0.591444737290011,11
1039,477,7265,"p",1,4643,2.5,4.5,-0.397146703134846,1.05875909761792,12
1040,477,7272,"p",1,1724,2,4,-0.813825211341897,0.591444737290011,13
1041,477,7261,"p",1,1609,2.5,5,-0.397146703134846,1.52607345794583,14
1042,477,7263,"p",1,1591,4,4,0.852888821486308,0.591444737290011,15
1043,477,7262,"q",0,1445,1,5,-1.647182227756,1.52607345794583,16
1745,477,7281,"q",0,2256,1.5,3,-1.23050371954895,-0.343183983365809,17
1746,477,7274,"q",0,1317,2,4,-0.813825211341897,0.591444737290011,18
1747,477,7287,"p",1,2342,4,2,0.852888821486308,-1.27781270402163,19
1748,477,7283,"p",1,3306,4,3.5,0.852888821486308,0.124130376962101,20
1749,477,7288,"p",1,1579,2,3,-0.813825211341897,-0.343183983365809,21
1750,477,7273,"p",1,6127,2,4,-0.813825211341897,0.591444737290011,22
1751,477,7279,"p",1,3417,3,4,0.0195318050722055,0.591444737290011,23
1752,477,7277,"p",1,1845,1,5,-1.647182227756,1.52607345794583,24
1753,477,7285,"p",1,6828,3,4,0.0195318050722055,0.591444737290011,25
1754,477,7278,"q",0,3186,2,4,-0.813825211341897,0.591444737290011,26
1755,477,7284,"q",0,1706,4.5,4,1.26956732969336,0.591444737290011,27
1756,477,7286,"p",1,1287,2,4,-0.813825211341897,0.591444737290011,28
1757,477,7276,"p",1,1519,3,2.5,0.0195318050722055,-0.810498343693718,29
1758,477,7280,"p",1,3120,4.5,2,1.26956732969336,-1.27781270402163,30
1759,477,7282,"p",1,3043,4.5,2,1.26956732969336,-1.27781270402163,31
1760,477,7275,"p",1,2594,4.5,3,1.26956732969336,-0.343183983365809,32
2860,477,7303,"p",1,2624,3.5,4,0.436210313279257,0.591444737290011,33
2861,477,7292,"q",0,1000,1.5,3.5,-1.23050371954895,0.124130376962101,34
2862,477,7290,"q",0,1881,2,4,-0.813825211341897,0.591444737290011,35
2863,477,7297,"p",1,1464,4,3.5,0.852888821486308,0.124130376962101,36
2864,477,7295,"p",1,1755,4,2.5,0.852888821486308,-0.810498343693718,37
2865,477,7299,"p",1,1530,4.5,2,1.26956732969336,-1.27781270402163,38
2866,477,7294,"q",0,2194,2,3.5,-0.813825211341897,0.124130376962101,39
2867,477,7301,"q",0,6369,3.5,3.5,0.436210313279257,0.124130376962101,40
2868,477,7291,"p",1,2874,4.5,1.5,1.26956732969336,-1.74512706434954,41
2869,477,7300,"q",0,2253,1.5,4,-1.23050371954895,0.591444737290011,42
2870,477,7296,"q",0,2663,3,1.5,0.0195318050722055,-1.74512706434954,43
2871,477,7304,"q",0,1541,2,3,-0.813825211341897,-0.343183983365809,44
2872,477,7293,"q",0,2540,4,3.5,0.852888821486308,0.124130376962101,45
2873,477,7302,"q",0,2394,2,4,-0.813825211341897,0.591444737290011,46
2874,477,7298,"q",0,4024,2,4,-0.813825211341897,0.591444737290011,47
2875,477,7289,"p",1,4104,3,2.5,0.0195318050722055,-0.810498343693718,48
4262,477,7308,"p",1,3924,4,3.5,0.852888821486308,0.124130376962101,49
4263,477,7318,"q",0,3179,5,1.5,1.68624583790041,-1.74512706434954,50
4264,477,7314,"q",0,6320,1,5,-1.647182227756,1.52607345794583,51
4265,477,7313,"p",1,1244,3.5,2.5,0.436210313279257,-0.810498343693718,52
4266,477,7306,"p",1,1766,1.5,5,-1.23050371954895,1.52607345794583,53
4267,477,7312,"q",0,1245,1.5,3.5,-1.23050371954895,0.124130376962101,54
4268,477,7307,"q",0,2357,1.5,3.5,-1.23050371954895,0.124130376962101,55
4269,477,7310,"p",1,1192,4,4.5,0.852888821486308,1.05875909761792,56
4270,477,7320,"p",1,933,2,5,-0.813825211341897,1.52607345794583,57
4271,477,7315,"q",0,2014,5,2.5,1.68624583790041,-0.810498343693718,58
4272,477,7305,"p",1,2544,4.5,1.5,1.26956732969336,-1.74512706434954,59
4273,477,7317,"p",1,2652,2,5,-0.813825211341897,1.52607345794583,60
4274,477,7309,"p",1,1745,3.5,3.5,0.436210313279257,0.124130376962101,61
4275,477,7316,"q",0,870,2,3,-0.813825211341897,-0.343183983365809,62
4276,477,7311,"q",0,2807,2,3,-0.813825211341897,-0.343183983365809,63
869,478,7269,"q",1,4335,4,3.5,0.852888821486308,0.124130376962101,1
870,478,7259,"q",1,2606,3.5,3,0.436210313279257,-0.343183983365809,2
871,478,7263,"q",1,3227,4,4,0.852888821486308,0.591444737290011,3
872,478,7257,"q",1,2546,2,4,-0.813825211341897,0.591444737290011,4
873,478,7258,"p",0,1305,4.5,1.5,1.26956732969336,-1.74512706434954,5
874,478,7268,"q",1,1445,3.5,4,0.436210313279257,0.591444737290011,6
875,478,7260,"q",1,1355,3.5,1.5,0.436210313279257,-1.74512706434954,7
876,478,7271,"q",1,1172,5,1,1.68624583790041,-2.21244142467745,8
877,478,7270,"p",0,1381,1.5,4.5,-1.23050371954895,1.05875909761792,9
878,478,7266,"p",0,1884,4.5,1.5,1.26956732969336,-1.74512706434954,10
879,478,7272,"q",1,1561,2,4,-0.813825211341897,0.591444737290011,11
880,478,7264,"q",1,662,2,4,-0.813825211341897,0.591444737290011,12
881,478,7265,"p",0,529,2.5,4.5,-0.397146703134846,1.05875909761792,13
882,478,7261,"q",1,805,2.5,5,-0.397146703134846,1.52607345794583,14
883,478,7267,"q",1,1185,2.5,4,-0.397146703134846,0.591444737290011,15
884,478,7262,"q",1,753,1,5,-1.647182227756,1.52607345794583,16
1092,478,7283,"p",0,149,4,3.5,0.852888821486308,0.124130376962101,17
1093,478,7276,"p",0,2428,3,2.5,0.0195318050722055,-0.810498343693718,18
1094,478,7280,"q",1,1381,4.5,2,1.26956732969336,-1.27781270402163,19
1095,478,7278,"q",1,1017,2,4,-0.813825211341897,0.591444737290011,20
1096,478,7279,"q",1,3157,3,4,0.0195318050722055,0.591444737290011,21
1097,478,7285,"q",1,1023,3,4,0.0195318050722055,0.591444737290011,22
1098,478,7281,"q",1,1650,1.5,3,-1.23050371954895,-0.343183983365809,23
1099,478,7282,"p",0,989,4.5,2,1.26956732969336,-1.27781270402163,24
1100,478,7287,"p",0,784,4,2,0.852888821486308,-1.27781270402163,25
1101,478,7286,"p",0,722,2,4,-0.813825211341897,0.591444737290011,26
1102,478,7288,"q",1,821,2,3,-0.813825211341897,-0.343183983365809,27
1103,478,7275,"q",1,982,4.5,3,1.26956732969336,-0.343183983365809,28
1104,478,7277,"p",0,556,1,5,-1.647182227756,1.52607345794583,29
1105,478,7284,"q",1,768,4.5,4,1.26956732969336,0.591444737290011,30
1106,478,7273,"q",1,1525,2,4,-0.813825211341897,0.591444737290011,31
1107,478,7274,"q",1,1005,2,4,-0.813825211341897,0.591444737290011,32
1331,478,7294,"q",1,1033,2,3.5,-0.813825211341897,0.124130376962101,33
1332,478,7304,"q",1,2173,2,3,-0.813825211341897,-0.343183983365809,34
1333,478,7292,"p",0,1035,1.5,3.5,-1.23050371954895,0.124130376962101,35
1334,478,7297,"q",1,1006,4,3.5,0.852888821486308,0.124130376962101,36
1335,478,7295,"p",0,992,4,2.5,0.852888821486308,-0.810498343693718,37
1336,478,7291,"q",1,733,4.5,1.5,1.26956732969336,-1.74512706434954,38
1337,478,7302,"q",1,985,2,4,-0.813825211341897,0.591444737290011,39
1338,478,7290,"q",1,931,2,4,-0.813825211341897,0.591444737290011,40
1339,478,7299,"p",0,720,4.5,2,1.26956732969336,-1.27781270402163,41
1340,478,7303,"q",1,736,3.5,4,0.436210313279257,0.591444737290011,42
1341,478,7296,"q",1,748,3,1.5,0.0195318050722055,-1.74512706434954,43
1342,478,7301,"q",1,475,3.5,3.5,0.436210313279257,0.124130376962101,44
1343,478,7300,"p",0,1304,1.5,4,-1.23050371954895,0.591444737290011,45
1344,478,7289,"p",0,1018,3,2.5,0.0195318050722055,-0.810498343693718,46
1345,478,7293,"q",1,837,4,3.5,0.852888821486308,0.124130376962101,47
1346,478,7298,"q",1,805,2,4,-0.813825211341897,0.591444737290011,48
1682,478,7315,"p",0,723,5,2.5,1.68624583790041,-0.810498343693718,49
1683,478,7318,"q",1,757,5,1.5,1.68624583790041,-1.74512706434954,50
1684,478,7319,"q",1,955,4.5,3.5,1.26956732969336,0.124130376962101,51
1685,478,7316,"p",0,1046,2,3,-0.813825211341897,-0.343183983365809,52
1686,478,7311,"q",1,560,2,3,-0.813825211341897,-0.343183983365809,53
1687,478,7320,"q",1,440,2,5,-0.813825211341897,1.52607345794583,54
1688,478,7306,"q",1,475,1.5,5,-1.23050371954895,1.52607345794583,55
1689,478,7309,"p",0,576,3.5,3.5,0.436210313279257,0.124130376962101,56
1690,478,7307,"q",1,429,1.5,3.5,-1.23050371954895,0.124130376962101,57
1691,478,7312,"q",1,1159,1.5,3.5,-1.23050371954895,0.124130376962101,58
1692,478,7310,"p",0,696,4,4.5,0.852888821486308,1.05875909761792,59
1693,478,7305,"p",0,291,4.5,1.5,1.26956732969336,-1.74512706434954,60
1694,478,7313,"p",0,621,3.5,2.5,0.436210313279257,-0.810498343693718,61
1695,478,7308,"q",1,294,4,3.5,0.852888821486308,0.124130376962101,62
1696,478,7314,"p",0,311,1,5,-1.647182227756,1.52607345794583,63
1697,478,7317,"q",1,95,2,5,-0.813825211341897,1.52607345794583,64
933,479,7263,"p",1,2094,4,4,0.852888821486308,0.591444737290011,1
934,479,7264,"q",0,3434,2,4,-0.813825211341897,0.591444737290011,2
935,479,7265,"q",0,1500,2.5,4.5,-0.397146703134846,1.05875909761792,3
936,479,7262,"q",0,1140,1,5,-1.647182227756,1.52607345794583,4
937,479,7271,"p",1,1190,5,1,1.68624583790041,-2.21244142467745,5
938,479,7269,"p",1,1302,4,3.5,0.852888821486308,0.124130376962101,6
939,479,7268,"q",0,2470,3.5,4,0.436210313279257,0.591444737290011,7
940,479,7272,"q",0,2039,2,4,-0.813825211341897,0.591444737290011,8
941,479,7266,"p",1,1867,4.5,1.5,1.26956732969336,-1.74512706434954,9
942,479,7261,"p",1,1342,2.5,5,-0.397146703134846,1.52607345794583,10
943,479,7257,"q",0,1811,2,4,-0.813825211341897,0.591444737290011,11
944,479,7267,"q",0,2068,2.5,4,-0.397146703134846,0.591444737290011,12
945,479,7260,"p",1,1152,3.5,1.5,0.436210313279257,-1.74512706434954,13
946,479,7259,"p",1,1805,3.5,3,0.436210313279257,-0.343183983365809,14
947,479,7270,"p",1,1967,1.5,4.5,-1.23050371954895,1.05875909761792,15
948,479,7258,"p",1,1350,4.5,1.5,1.26956732969336,-1.74512706434954,16
1251,479,7280,"p",1,1855,4.5,2,1.26956732969336,-1.27781270402163,17
1252,479,7279,"q",0,1789,3,4,0.0195318050722055,0.591444737290011,18
1253,479,7288,"q",0,2055,2,3,-0.813825211341897,-0.343183983365809,19
1254,479,7273,"q",0,2396,2,4,-0.813825211341897,0.591444737290011,20
1255,479,7281,"q",0,1815,1.5,3,-1.23050371954895,-0.343183983365809,21
1256,479,7275,"p",1,1428,4.5,3,1.26956732969336,-0.343183983365809,22
1257,479,7276,"p",1,1144,3,2.5,0.0195318050722055,-0.810498343693718,23
1258,479,7285,"p",1,1650,3,4,0.0195318050722055,0.591444737290011,24
1259,479,7283,"q",0,2412,4,3.5,0.852888821486308,0.124130376962101,25
1260,479,7278,"q",0,3443,2,4,-0.813825211341897,0.591444737290011,26
1261,479,7287,"p",1,1595,4,2,0.852888821486308,-1.27781270402163,27
1262,479,7274,"q",0,1246,2,4,-0.813825211341897,0.591444737290011,28
1263,479,7284,"p",1,1733,4.5,4,1.26956732969336,0.591444737290011,29
1264,479,7286,"q",0,1273,2,4,-0.813825211341897,0.591444737290011,30
1265,479,7282,"p",1,875,4.5,2,1.26956732969336,-1.27781270402163,31
1266,479,7277,"q",0,994,1,5,-1.647182227756,1.52607345794583,32
1888,479,7303,"q",0,1444,3.5,4,0.436210313279257,0.591444737290011,33
1889,479,7296,"q",0,1135,3,1.5,0.0195318050722055,-1.74512706434954,34
1890,479,7299,"q",0,2020,4.5,2,1.26956732969336,-1.27781270402163,35
1891,479,7294,"q",0,1461,2,3.5,-0.813825211341897,0.124130376962101,36
1892,479,7297,"p",1,1576,4,3.5,0.852888821486308,0.124130376962101,37
1893,479,7295,"q",0,1199,4,2.5,0.852888821486308,-0.810498343693718,38
1894,479,7292,"q",0,1535,1.5,3.5,-1.23050371954895,0.124130376962101,39
1895,479,7301,"p",1,1761,3.5,3.5,0.436210313279257,0.124130376962101,40
1896,479,7293,"q",0,1846,4,3.5,0.852888821486308,0.124130376962101,41
1897,479,7290,"q",0,1022,2,4,-0.813825211341897,0.591444737290011,42
1898,479,7298,"q",0,1144,2,4,-0.813825211341897,0.591444737290011,43
1899,479,7304,"q",0,1791,2,3,-0.813825211341897,-0.343183983365809,44
1900,479,7291,"p",1,1074,4.5,1.5,1.26956732969336,-1.74512706434954,45
1901,479,7302,"p",1,1525,2,4,-0.813825211341897,0.591444737290011,46
1902,479,7300,"q",0,1064,1.5,4,-1.23050371954895,0.591444737290011,47
1903,479,7289,"p",1,1182,3,2.5,0.0195318050722055,-0.810498343693718,48
2764,479,7315,"q",0,2926,5,2.5,1.68624583790041,-0.810498343693718,49
2765,479,7316,"q",0,3158,2,3,-0.813825211341897,-0.343183983365809,50
2766,479,7305,"p",1,1999,4.5,1.5,1.26956732969336,-1.74512706434954,51
2767,479,7312,"q",0,1627,1.5,3.5,-1.23050371954895,0.124130376962101,52
2768,479,7308,"p",1,1644,4,3.5,0.852888821486308,0.124130376962101,53
2769,479,7309,"p",1,1626,3.5,3.5,0.436210313279257,0.124130376962101,54
2770,479,7319,"p",1,1741,4.5,3.5,1.26956732969336,0.124130376962101,55
2771,479,7306,"q",0,1171,1.5,5,-1.23050371954895,1.52607345794583,56
2772,479,7307,"p",1,3095,1.5,3.5,-1.23050371954895,0.124130376962101,57
2773,479,7310,"q",0,1919,4,4.5,0.852888821486308,1.05875909761792,58
2774,479,7318,"p",1,2226,5,1.5,1.68624583790041,-1.74512706434954,59
2775,479,7313,"q",0,1481,3.5,2.5,0.436210313279257,-0.810498343693718,60
2776,479,7314,"q",0,1492,1,5,-1.647182227756,1.52607345794583,61
2777,479,7311,"q",0,1172,2,3,-0.813825211341897,-0.343183983365809,62
2778,479,7320,"q",0,2307,2,5,-0.813825211341897,1.52607345794583,63
2779,479,7317,"p",1,1086,2,5,-0.813825211341897,1.52607345794583,64
949,480,7257,"p",0,3330,2,4,-0.813825211341897,0.591444737290011,1
950,480,7271,"q",1,1761,5,1,1.68624583790041,-2.21244142467745,2
951,480,7259,"q",1,2262,3.5,3,0.436210313279257,-0.343183983365809,3
952,480,7267,"p",0,2629,2.5,4,-0.397146703134846,0.591444737290011,4
953,480,7266,"q",1,1614,4.5,1.5,1.26956732969336,-1.74512706434954,5
954,480,7261,"p",0,2195,2.5,5,-0.397146703134846,1.52607345794583,6
955,480,7268,"p",0,1961,3.5,4,0.436210313279257,0.591444737290011,7
956,480,7260,"q",1,1500,3.5,1.5,0.436210313279257,-1.74512706434954,8
957,480,7269,"q",1,1528,4,3.5,0.852888821486308,0.124130376962101,9
958,480,7270,"p",0,2026,1.5,4.5,-1.23050371954895,1.05875909761792,10
959,480,7264,"p",0,1474,2,4,-0.813825211341897,0.591444737290011,11
960,480,7262,"p",0,1069,1,5,-1.647182227756,1.52607345794583,12
961,480,7258,"q",1,1794,4.5,1.5,1.26956732969336,-1.74512706434954,13
962,480,7263,"q",1,1856,4,4,0.852888821486308,0.591444737290011,14
963,480,7272,"p",0,1675,2,4,-0.813825211341897,0.591444737290011,15
964,480,7265,"p",0,1476,2.5,4.5,-0.397146703134846,1.05875909761792,16
1299,480,7288,"p",0,1550,2,3,-0.813825211341897,-0.343183983365809,17
1300,480,7285,"q",1,938,3,4,0.0195318050722055,0.591444737290011,18
1301,480,7282,"q",1,1608,4.5,2,1.26956732969336,-1.27781270402163,19
1302,480,7279,"q",1,1763,3,4,0.0195318050722055,0.591444737290011,20
1303,480,7287,"q",1,1337,4,2,0.852888821486308,-1.27781270402163,21
1304,480,7284,"p",0,3251,4.5,4,1.26956732969336,0.591444737290011,22
1305,480,7286,"p",0,1086,2,4,-0.813825211341897,0.591444737290011,23
1306,480,7280,"q",1,1478,4.5,2,1.26956732969336,-1.27781270402163,24
1307,480,7273,"p",0,1604,2,4,-0.813825211341897,0.591444737290011,25
1308,480,7274,"p",0,1326,2,4,-0.813825211341897,0.591444737290011,26
1309,480,7277,"p",0,1897,1,5,-1.647182227756,1.52607345794583,27
1310,480,7278,"p",0,2998,2,4,-0.813825211341897,0.591444737290011,28
1311,480,7276,"p",0,1817,3,2.5,0.0195318050722055,-0.810498343693718,29
1312,480,7275,"q",1,1043,4.5,3,1.26956732969336,-0.343183983365809,30
1313,480,7283,"q",1,2211,4,3.5,0.852888821486308,0.124130376962101,31
1314,480,7281,"p",0,1346,1.5,3,-1.23050371954895,-0.343183983365809,32
1936,480,7303,"p",0,2143,3.5,4,0.436210313279257,0.591444737290011,33
1937,480,7300,"p",0,2725,1.5,4,-1.23050371954895,0.591444737290011,34
1938,480,7296,"p",0,1970,3,1.5,0.0195318050722055,-1.74512706434954,35
1939,480,7298,"p",0,968,2,4,-0.813825211341897,0.591444737290011,36
1940,480,7290,"p",0,784,2,4,-0.813825211341897,0.591444737290011,37
1941,480,7293,"q",1,1198,4,3.5,0.852888821486308,0.124130376962101,38
1942,480,7301,"p",0,1920,3.5,3.5,0.436210313279257,0.124130376962101,39
1943,480,7299,"p",0,2561,4.5,2,1.26956732969336,-1.27781270402163,40
1944,480,7304,"q",1,2299,2,3,-0.813825211341897,-0.343183983365809,41
1945,480,7295,"q",1,1580,4,2.5,0.852888821486308,-0.810498343693718,42
1946,480,7294,"p",0,1108,2,3.5,-0.813825211341897,0.124130376962101,43
1947,480,7292,"p",0,1291,1.5,3.5,-1.23050371954895,0.124130376962101,44
1948,480,7302,"p",0,1254,2,4,-0.813825211341897,0.591444737290011,45
1949,480,7289,"p",0,1063,3,2.5,0.0195318050722055,-0.810498343693718,46
1950,480,7291,"q",1,1211,4.5,1.5,1.26956732969336,-1.74512706434954,47
1951,480,7297,"q",1,1494,4,3.5,0.852888821486308,0.124130376962101,48
2652,480,7314,"p",0,1133,1,5,-1.647182227756,1.52607345794583,49
2653,480,7312,"p",0,1477,1.5,3.5,-1.23050371954895,0.124130376962101,50
2654,480,7313,"q",1,901,3.5,2.5,0.436210313279257,-0.810498343693718,51
2655,480,7305,"q",1,1026,4.5,1.5,1.26956732969336,-1.74512706434954,52
2656,480,7311,"p",0,2659,2,3,-0.813825211341897,-0.343183983365809,53
2657,480,7318,"q",1,1773,5,1.5,1.68624583790041,-1.74512706434954,54
2658,480,7306,"p",0,972,1.5,5,-1.23050371954895,1.52607345794583,55
2659,480,7319,"q",1,1442,4.5,3.5,1.26956732969336,0.124130376962101,56
2660,480,7309,"p",0,939,3.5,3.5,0.436210313279257,0.124130376962101,57
2661,480,7315,"q",1,1264,5,2.5,1.68624583790041,-0.810498343693718,58
2662,480,7308,"p",0,1047,4,3.5,0.852888821486308,0.124130376962101,59
2663,480,7310,"p",0,1315,4,4.5,0.852888821486308,1.05875909761792,60
2664,480,7320,"p",0,1012,2,5,-0.813825211341897,1.52607345794583,61
2665,480,7316,"p",0,897,2,3,-0.813825211341897,-0.343183983365809,62
2666,480,7307,"p",0,1453,1.5,3.5,-1.23050371954895,0.124130376962101,63
2667,480,7317,"p",0,1109,2,5,-0.813825211341897,1.52607345794583,64
1044,481,7265,"p",1,7856,2.5,4.5,-0.397146703134846,1.05875909761792,1
1045,481,7267,"p",1,3815,2.5,4,-0.397146703134846,0.591444737290011,2
1046,481,7266,"p",1,2899,4.5,1.5,1.26956732969336,-1.74512706434954,3
1047,481,7260,"p",1,1223,3.5,1.5,0.436210313279257,-1.74512706434954,4
1048,481,7261,"p",1,2501,2.5,5,-0.397146703134846,1.52607345794583,5
1049,481,7264,"p",1,3087,2,4,-0.813825211341897,0.591444737290011,6
1050,481,7268,"q",0,3294,3.5,4,0.436210313279257,0.591444737290011,7
1051,481,7272,"q",0,2277,2,4,-0.813825211341897,0.591444737290011,8
1052,481,7262,"q",0,1156,1,5,-1.647182227756,1.52607345794583,9
1053,481,7269,"p",1,2657,4,3.5,0.852888821486308,0.124130376962101,10
1054,481,7259,"p",1,1478,3.5,3,0.436210313279257,-0.343183983365809,11
1055,481,7270,"q",0,794,1.5,4.5,-1.23050371954895,1.05875909761792,12
1056,481,7257,"q",0,2512,2,4,-0.813825211341897,0.591444737290011,13
1057,481,7271,"p",1,1599,5,1,1.68624583790041,-2.21244142467745,14
1058,481,7263,"p",1,2556,4,4,0.852888821486308,0.591444737290011,15
1059,481,7258,"p",1,1758,4.5,1.5,1.26956732969336,-1.74512706434954,16
1522,481,7286,"q",0,4359,2,4,-0.813825211341897,0.591444737290011,17
1523,481,7283,"p",1,2136,4,3.5,0.852888821486308,0.124130376962101,18
1524,481,7285,"p",1,1782,3,4,0.0195318050722055,0.591444737290011,19
1525,481,7275,"p",1,1085,4.5,3,1.26956732969336,-0.343183983365809,20
1526,481,7276,"p",1,1818,3,2.5,0.0195318050722055,-0.810498343693718,21
1527,481,7287,"p",1,984,4,2,0.852888821486308,-1.27781270402163,22
1528,481,7279,"p",1,1396,3,4,0.0195318050722055,0.591444737290011,23
1529,481,7280,"p",1,2640,4.5,2,1.26956732969336,-1.27781270402163,24
1530,481,7282,"p",1,1569,4.5,2,1.26956732969336,-1.27781270402163,25
1531,481,7284,"p",1,1976,4.5,4,1.26956732969336,0.591444737290011,26
1532,481,7281,"p",1,1181,1.5,3,-1.23050371954895,-0.343183983365809,27
1533,481,7278,"p",1,1337,2,4,-0.813825211341897,0.591444737290011,28
1534,481,7273,"p",1,2086,2,4,-0.813825211341897,0.591444737290011,29
1535,481,7274,"p",1,1542,2,4,-0.813825211341897,0.591444737290011,30
1536,481,7288,"p",1,557,2,3,-0.813825211341897,-0.343183983365809,31
1537,481,7277,"q",0,1222,1,5,-1.647182227756,1.52607345794583,32
2096,481,7294,"q",0,2212,2,3.5,-0.813825211341897,0.124130376962101,33
2097,481,7297,"p",1,1572,4,3.5,0.852888821486308,0.124130376962101,34
2098,481,7304,"q",0,1688,2,3,-0.813825211341897,-0.343183983365809,35
2099,481,7301,"p",1,4113,3.5,3.5,0.436210313279257,0.124130376962101,36
2100,481,7298,"q",0,1894,2,4,-0.813825211341897,0.591444737290011,37
2101,481,7291,"p",1,2247,4.5,1.5,1.26956732969336,-1.74512706434954,38
2102,481,7290,"q",0,1187,2,4,-0.813825211341897,0.591444737290011,39
2103,481,7296,"q",0,1212,3,1.5,0.0195318050722055,-1.74512706434954,40
2104,481,7299,"q",0,1383,4.5,2,1.26956732969336,-1.27781270402163,41
2105,481,7289,"p",1,1038,3,2.5,0.0195318050722055,-0.810498343693718,42
2106,481,7292,"p",1,782,1.5,3.5,-1.23050371954895,0.124130376962101,43
2107,481,7303,"p",1,1573,3.5,4,0.436210313279257,0.591444737290011,44
2108,481,7302,"p",1,1541,2,4,-0.813825211341897,0.591444737290011,45
2109,481,7300,"q",0,1428,1.5,4,-1.23050371954895,0.591444737290011,46
2110,481,7293,"p",1,1802,4,3.5,0.852888821486308,0.124130376962101,47
2111,481,7295,"p",1,1106,4,2.5,0.852888821486308,-0.810498343693718,48
2970,481,7319,"p",1,1881,4.5,3.5,1.26956732969336,0.124130376962101,49
2971,481,7306,"p",1,1571,1.5,5,-1.23050371954895,1.52607345794583,50
2972,481,7318,"p",1,1670,5,1.5,1.68624583790041,-1.74512706434954,51
2973,481,7310,"p",1,1328,4,4.5,0.852888821486308,1.05875909761792,52
2974,481,7317,"p",1,986,2,5,-0.813825211341897,1.52607345794583,53
2975,481,7305,"p",1,1601,4.5,1.5,1.26956732969336,-1.74512706434954,54
2976,481,7316,"p",1,1477,2,3,-0.813825211341897,-0.343183983365809,55
2977,481,7309,"p",1,767,3.5,3.5,0.436210313279257,0.124130376962101,56
2978,481,7307,"p",1,1565,1.5,3.5,-1.23050371954895,0.124130376962101,57
2979,481,7308,"p",1,924,4,3.5,0.852888821486308,0.124130376962101,58
2980,481,7315,"p",1,973,5,2.5,1.68624583790041,-0.810498343693718,59
2981,481,7313,"p",1,1063,3.5,2.5,0.436210313279257,-0.810498343693718,60
2982,481,7320,"p",1,806,2,5,-0.813825211341897,1.52607345794583,61
2983,481,7312,"p",1,1186,1.5,3.5,-1.23050371954895,0.124130376962101,62
2984,481,7314,"q",0,550,1,5,-1.647182227756,1.52607345794583,63
2985,481,7311,"q",0,2348,2,3,-0.813825211341897,-0.343183983365809,64
1012,484,7268,"q",1,1909,3.5,4,0.436210313279257,0.591444737290011,1
1013,484,7269,"q",1,1230,4,3.5,0.852888821486308,0.124130376962101,2
1014,484,7263,"p",0,3237,4,4,0.852888821486308,0.591444737290011,3
1015,484,7257,"p",0,1785,2,4,-0.813825211341897,0.591444737290011,4
1016,484,7266,"p",0,2536,4.5,1.5,1.26956732969336,-1.74512706434954,5
1017,484,7265,"q",1,1882,2.5,4.5,-0.397146703134846,1.05875909761792,6
1018,484,7264,"p",0,1670,2,4,-0.813825211341897,0.591444737290011,7
1019,484,7259,"q",1,2087,3.5,3,0.436210313279257,-0.343183983365809,8
1020,484,7272,"q",1,894,2,4,-0.813825211341897,0.591444737290011,9
1021,484,7267,"p",0,1307,2.5,4,-0.397146703134846,0.591444737290011,10
1022,484,7270,"p",0,4188,1.5,4.5,-1.23050371954895,1.05875909761792,11
1023,484,7258,"q",1,1455,4.5,1.5,1.26956732969336,-1.74512706434954,12
1024,484,7261,"q",1,2310,2.5,5,-0.397146703134846,1.52607345794583,13
1025,484,7262,"p",0,946,1,5,-1.647182227756,1.52607345794583,14
1026,484,7271,"q",1,1957,5,1,1.68624583790041,-2.21244142467745,15
1027,484,7260,"q",1,1713,3.5,1.5,0.436210313279257,-1.74512706434954,16
1410,484,7278,"p",0,1560,2,4,-0.813825211341897,0.591444737290011,17
1411,484,7287,"q",1,1131,4,2,0.852888821486308,-1.27781270402163,18
1412,484,7282,"q",1,2300,4.5,2,1.26956732969336,-1.27781270402163,19
1413,484,7279,"q",1,3745,3,4,0.0195318050722055,0.591444737290011,20
1414,484,7284,"q",1,954,4.5,4,1.26956732969336,0.591444737290011,21
1415,484,7280,"q",1,1855,4.5,2,1.26956732969336,-1.27781270402163,22
1416,484,7273,"q",1,1667,2,4,-0.813825211341897,0.591444737290011,23
1417,484,7286,"p",0,1159,2,4,-0.813825211341897,0.591444737290011,24
1418,484,7276,"p",0,1065,3,2.5,0.0195318050722055,-0.810498343693718,25
1419,484,7283,"q",1,2414,4,3.5,0.852888821486308,0.124130376962101,26
1420,484,7285,"q",1,1643,3,4,0.0195318050722055,0.591444737290011,27
1421,484,7275,"q",1,2208,4.5,3,1.26956732969336,-0.343183983365809,28
1422,484,7274,"p",0,3613,2,4,-0.813825211341897,0.591444737290011,29
1423,484,7288,"p",0,882,2,3,-0.813825211341897,-0.343183983365809,30
1424,484,7281,"p",0,1396,1.5,3,-1.23050371954895,-0.343183983365809,31
1425,484,7277,"p",0,1554,1,5,-1.647182227756,1.52607345794583,32
2032,484,7299,"q",1,1645,4.5,2,1.26956732969336,-1.27781270402163,33
2033,484,7297,"q",1,1178,4,3.5,0.852888821486308,0.124130376962101,34
2034,484,7302,"q",1,1186,2,4,-0.813825211341897,0.591444737290011,35
2035,484,7303,"q",1,1314,3.5,4,0.436210313279257,0.591444737290011,36
2036,484,7290,"p",0,1007,2,4,-0.813825211341897,0.591444737290011,37
2037,484,7298,"p",0,888,2,4,-0.813825211341897,0.591444737290011,38
2038,484,7300,"p",0,940,1.5,4,-1.23050371954895,0.591444737290011,39
2039,484,7294,"p",0,1052,2,3.5,-0.813825211341897,0.124130376962101,40
2040,484,7295,"q",1,2446,4,2.5,0.852888821486308,-0.810498343693718,41
2041,484,7289,"q",1,1920,3,2.5,0.0195318050722055,-0.810498343693718,42
2042,484,7293,"q",1,4202,4,3.5,0.852888821486308,0.124130376962101,43
2043,484,7304,"p",0,2419,2,3,-0.813825211341897,-0.343183983365809,44
2044,484,7296,"q",1,2100,3,1.5,0.0195318050722055,-1.74512706434954,45
2045,484,7292,"p",0,1040,1.5,3.5,-1.23050371954895,0.124130376962101,46
2046,484,7301,"q",1,2228,3.5,3.5,0.436210313279257,0.124130376962101,47
2047,484,7291,"p",0,3454,4.5,1.5,1.26956732969336,-1.74512706434954,48
3129,484,7305,"q",1,1331,4.5,1.5,1.26956732969336,-1.74512706434954,49
3130,484,7319,"q",1,2079,4.5,3.5,1.26956732969336,0.124130376962101,50
3131,484,7315,"q",1,1583,5,2.5,1.68624583790041,-0.810498343693718,51
3132,484,7308,"q",1,1274,4,3.5,0.852888821486308,0.124130376962101,52
3133,484,7310,"q",1,1708,4,4.5,0.852888821486308,1.05875909761792,53
3134,484,7309,"q",1,1344,3.5,3.5,0.436210313279257,0.124130376962101,54
3135,484,7307,"q",1,2843,1.5,3.5,-1.23050371954895,0.124130376962101,55
3136,484,7306,"q",1,1772,1.5,5,-1.23050371954895,1.52607345794583,56
3137,484,7316,"q",1,1446,2,3,-0.813825211341897,-0.343183983365809,57
3138,484,7313,"q",1,2028,3.5,2.5,0.436210313279257,-0.810498343693718,58
3139,484,7317,"q",1,1369,2,5,-0.813825211341897,1.52607345794583,59
3140,484,7318,"q",1,2109,5,1.5,1.68624583790041,-1.74512706434954,60
3141,484,7314,"p",0,889,1,5,-1.647182227756,1.52607345794583,61
3142,484,7312,"p",0,1339,1.5,3.5,-1.23050371954895,0.124130376962101,62
3143,484,7311,"q",1,1357,2,3,-0.813825211341897,-0.343183983365809,63
1124,485,7268,"p",1,5797,3.5,4,0.436210313279257,0.591444737290011,1
1125,485,7265,"p",1,5584,2.5,4.5,-0.397146703134846,1.05875909761792,2
1126,485,7262,"q",0,966,1,5,-1.647182227756,1.52607345794583,3
1127,485,7264,"q",0,1801,2,4,-0.813825211341897,0.591444737290011,4
1128,485,7266,"p",1,1817,4.5,1.5,1.26956732969336,-1.74512706434954,5
1129,485,7258,"p",1,1097,4.5,1.5,1.26956732969336,-1.74512706434954,6
1130,485,7267,"p",1,3367,2.5,4,-0.397146703134846,0.591444737290011,7
1131,485,7261,"p",1,1350,2.5,5,-0.397146703134846,1.52607345794583,8
1132,485,7272,"p",1,1416,2,4,-0.813825211341897,0.591444737290011,9
1133,485,7263,"p",1,2310,4,4,0.852888821486308,0.591444737290011,10
1134,485,7271,"p",1,1732,5,1,1.68624583790041,-2.21244142467745,11
1135,485,7269,"p",1,1220,4,3.5,0.852888821486308,0.124130376962101,12
1136,485,7260,"p",1,1567,3.5,1.5,0.436210313279257,-1.74512706434954,13
1137,485,7270,"q",0,1150,1.5,4.5,-1.23050371954895,1.05875909761792,14
1138,485,7259,"p",1,2131,3.5,3,0.436210313279257,-0.343183983365809,15
1139,485,7257,"q",0,1772,2,4,-0.813825211341897,0.591444737290011,16
1650,485,7281,"p",1,3340,1.5,3,-1.23050371954895,-0.343183983365809,17
1651,485,7285,"p",1,1330,3,4,0.0195318050722055,0.591444737290011,18
1652,485,7278,"q",0,1264,2,4,-0.813825211341897,0.591444737290011,19
1653,485,7279,"q",0,3059,3,4,0.0195318050722055,0.591444737290011,20
1654,485,7277,"p",1,1009,1,5,-1.647182227756,1.52607345794583,21
1655,485,7275,"p",1,4027,4.5,3,1.26956732969336,-0.343183983365809,22
1656,485,7273,"q",0,1571,2,4,-0.813825211341897,0.591444737290011,23
1657,485,7286,"q",0,1038,2,4,-0.813825211341897,0.591444737290011,24
1658,485,7282,"p",1,2388,4.5,2,1.26956732969336,-1.27781270402163,25
1659,485,7274,"q",0,2808,2,4,-0.813825211341897,0.591444737290011,26
1660,485,7283,"p",1,2113,4,3.5,0.852888821486308,0.124130376962101,27
1661,485,7288,"q",0,1223,2,3,-0.813825211341897,-0.343183983365809,28
1662,485,7287,"p",1,1629,4,2,0.852888821486308,-1.27781270402163,29
1663,485,7280,"p",1,1384,4.5,2,1.26956732969336,-1.27781270402163,30
1664,485,7276,"p",1,3443,3,2.5,0.0195318050722055,-0.810498343693718,31
1665,485,7284,"p",1,2299,4.5,4,1.26956732969336,0.591444737290011,32
2301,485,7292,"q",0,2312,1.5,3.5,-1.23050371954895,0.124130376962101,33
2302,485,7294,"q",0,1693,2,3.5,-0.813825211341897,0.124130376962101,34
2303,485,7291,"p",1,2681,4.5,1.5,1.26956732969336,-1.74512706434954,35
2304,485,7304,"p",1,1949,2,3,-0.813825211341897,-0.343183983365809,36
2305,485,7298,"q",0,1147,2,4,-0.813825211341897,0.591444737290011,37
2306,485,7300,"q",0,1034,1.5,4,-1.23050371954895,0.591444737290011,38
2307,485,7293,"q",0,1869,4,3.5,0.852888821486308,0.124130376962101,39
2308,485,7295,"q",0,1410,4,2.5,0.852888821486308,-0.810498343693718,40
2309,485,7303,"q",0,1055,3.5,4,0.436210313279257,0.591444737290011,41
2310,485,7289,"q",0,972,3,2.5,0.0195318050722055,-0.810498343693718,42
2311,485,7297,"p",1,1900,4,3.5,0.852888821486308,0.124130376962101,43
2312,485,7290,"q",0,1242,2,4,-0.813825211341897,0.591444737290011,44
2313,485,7299,"q",0,1205,4.5,2,1.26956732969336,-1.27781270402163,45
2314,485,7296,"q",0,1091,3,1.5,0.0195318050722055,-1.74512706434954,46
2315,485,7302,"q",0,1146,2,4,-0.813825211341897,0.591444737290011,47
2316,485,7301,"p",1,1215,3.5,3.5,0.436210313279257,0.124130376962101,48
3176,485,7309,"q",0,1920,3.5,3.5,0.436210313279257,0.124130376962101,49
3177,485,7307,"q",0,1273,1.5,3.5,-1.23050371954895,0.124130376962101,50
3178,485,7310,"q",0,1823,4,4.5,0.852888821486308,1.05875909761792,51
3179,485,7308,"p",1,2859,4,3.5,0.852888821486308,0.124130376962101,52
3180,485,7306,"q",0,1299,1.5,5,-1.23050371954895,1.52607345794583,53
3181,485,7320,"q",0,786,2,5,-0.813825211341897,1.52607345794583,54
3182,485,7311,"q",0,1199,2,3,-0.813825211341897,-0.343183983365809,55
3183,485,7305,"p",1,1503,4.5,1.5,1.26956732969336,-1.74512706434954,56
3184,485,7313,"p",1,2025,3.5,2.5,0.436210313279257,-0.810498343693718,57
3185,485,7316,"q",0,1965,2,3,-0.813825211341897,-0.343183983365809,58
3186,485,7319,"p",1,1913,4.5,3.5,1.26956732969336,0.124130376962101,59
3187,485,7315,"q",0,1277,5,2.5,1.68624583790041,-0.810498343693718,60
3188,485,7318,"q",0,935,5,1.5,1.68624583790041,-1.74512706434954,61
3189,485,7317,"q",0,1354,2,5,-0.813825211341897,1.52607345794583,62
3190,485,7314,"q",0,1052,1,5,-1.647182227756,1.52607345794583,63
3191,485,7312,"q",0,819,1.5,3.5,-1.23050371954895,0.124130376962101,64
1283,486,7267,"q",1,4081,2.5,4,-0.397146703134846,0.591444737290011,1
1284,486,7270,"p",0,6186,1.5,4.5,-1.23050371954895,1.05875909761792,2
1285,486,7272,"q",1,3501,2,4,-0.813825211341897,0.591444737290011,3
1286,486,7259,"q",1,2705,3.5,3,0.436210313279257,-0.343183983365809,4
1287,486,7260,"q",1,1609,3.5,1.5,0.436210313279257,-1.74512706434954,5
1288,486,7261,"p",0,2770,2.5,5,-0.397146703134846,1.52607345794583,6
1289,486,7266,"q",1,2465,4.5,1.5,1.26956732969336,-1.74512706434954,7
1290,486,7265,"p",0,2276,2.5,4.5,-0.397146703134846,1.05875909761792,8
1291,486,7258,"q",1,1836,4.5,1.5,1.26956732969336,-1.74512706434954,9
1292,486,7269,"q",1,2542,4,3.5,0.852888821486308,0.124130376962101,10
1293,486,7262,"p",0,1483,1,5,-1.647182227756,1.52607345794583,11
1294,486,7257,"p",0,2165,2,4,-0.813825211341897,0.591444737290011,12
1295,486,7268,"q",1,1876,3.5,4,0.436210313279257,0.591444737290011,13
1296,486,7264,"q",1,2437,2,4,-0.813825211341897,0.591444737290011,14
1297,486,7263,"q",1,1885,4,4,0.852888821486308,0.591444737290011,15
1298,486,7271,"q",1,1155,5,1,1.68624583790041,-2.21244142467745,16
2190,486,7277,"p",0,2475,1,5,-1.647182227756,1.52607345794583,17
2191,486,7286,"q",1,2625,2,4,-0.813825211341897,0.591444737290011,18
2192,486,7280,"q",1,2490,4.5,2,1.26956732969336,-1.27781270402163,19
2193,486,7279,"p",0,4200,3,4,0.0195318050722055,0.591444737290011,20
2194,486,7285,"q",1,2110,3,4,0.0195318050722055,0.591444737290011,21
2195,486,7274,"p",0,1773,2,4,-0.813825211341897,0.591444737290011,22
2196,486,7287,"q",1,1035,4,2,0.852888821486308,-1.27781270402163,23
2197,486,7282,"q",1,1438,4.5,2,1.26956732969336,-1.27781270402163,24
2198,486,7273,"p",0,2238,2,4,-0.813825211341897,0.591444737290011,25
2199,486,7278,"q",1,5527,2,4,-0.813825211341897,0.591444737290011,26
2200,486,7288,"q",1,3492,2,3,-0.813825211341897,-0.343183983365809,27
2201,486,7284,"q",1,3800,4.5,4,1.26956732969336,0.591444737290011,28
2202,486,7276,"q",1,2251,3,2.5,0.0195318050722055,-0.810498343693718,29
2203,486,7283,"q",1,2246,4,3.5,0.852888821486308,0.124130376962101,30
2204,486,7275,"q",1,1781,4.5,3,1.26956732969336,-0.343183983365809,31
2205,486,7281,"q",1,2143,1.5,3,-1.23050371954895,-0.343183983365809,32
3192,486,7303,"p",0,1920,3.5,4,0.436210313279257,0.591444737290011,33
3193,486,7298,"p",0,1036,2,4,-0.813825211341897,0.591444737290011,34
3194,486,7293,"q",1,1168,4,3.5,0.852888821486308,0.124130376962101,35
3195,486,7289,"q",1,2048,3,2.5,0.0195318050722055,-0.810498343693718,36
3196,486,7294,"p",0,1374,2,3.5,-0.813825211341897,0.124130376962101,37
3197,486,7301,"q",1,1946,3.5,3.5,0.436210313279257,0.124130376962101,38
3198,486,7304,"p",0,5741,2,3,-0.813825211341897,-0.343183983365809,39
3199,486,7299,"q",1,1473,4.5,2,1.26956732969336,-1.27781270402163,40
3200,486,7300,"p",0,1318,1.5,4,-1.23050371954895,0.591444737290011,41
3201,486,7290,"p",0,993,2,4,-0.813825211341897,0.591444737290011,42
3202,486,7296,"q",1,1579,3,1.5,0.0195318050722055,-1.74512706434954,43
3203,486,7292,"q",1,1697,1.5,3.5,-1.23050371954895,0.124130376962101,44
3204,486,7302,"q",1,1262,2,4,-0.813825211341897,0.591444737290011,45
3205,486,7297,"q",1,1594,4,3.5,0.852888821486308,0.124130376962101,46
3206,486,7295,"q",1,2862,4,2.5,0.852888821486308,-0.810498343693718,47
3207,486,7291,"q",1,1130,4.5,1.5,1.26956732969336,-1.74512706434954,48
4547,486,7307,"q",1,4869,1.5,3.5,-1.23050371954895,0.124130376962101,49
4548,486,7306,"p",0,2292,1.5,5,-1.23050371954895,1.52607345794583,50
4549,486,7315,"q",1,1923,5,2.5,1.68624583790041,-0.810498343693718,51
4550,486,7313,"q",1,2090,3.5,2.5,0.436210313279257,-0.810498343693718,52
4551,486,7310,"q",1,1694,4,4.5,0.852888821486308,1.05875909761792,53
4552,486,7320,"p",0,2164,2,5,-0.813825211341897,1.52607345794583,54
4553,486,7312,"p",0,4394,1.5,3.5,-1.23050371954895,0.124130376962101,55
4554,486,7318,"q",1,912,5,1.5,1.68624583790041,-1.74512706434954,56
4555,486,7308,"q",1,1964,4,3.5,0.852888821486308,0.124130376962101,57
4556,486,7314,"p",0,1204,1,5,-1.647182227756,1.52607345794583,58
4557,486,7305,"q",1,1254,4.5,1.5,1.26956732969336,-1.74512706434954,59
4558,486,7311,"q",1,2813,2,3,-0.813825211341897,-0.343183983365809,60
4559,486,7319,"q",1,1846,4.5,3.5,1.26956732969336,0.124130376962101,61
4560,486,7317,"p",0,1062,2,5,-0.813825211341897,1.52607345794583,62
4561,486,7316,"p",0,1882,2,3,-0.813825211341897,-0.343183983365809,63
1140,487,7270,"p",1,51,1.5,4.5,-1.23050371954895,1.05875909761792,1
1141,487,7269,"p",1,4678,4,3.5,0.852888821486308,0.124130376962101,2
1142,487,7272,"q",0,1726,2,4,-0.813825211341897,0.591444737290011,3
1143,487,7262,"q",0,1747,1,5,-1.647182227756,1.52607345794583,4
1144,487,7258,"p",1,2163,4.5,1.5,1.26956732969336,-1.74512706434954,5
1145,487,7271,"p",1,1084,5,1,1.68624583790041,-2.21244142467745,6
1146,487,7257,"q",0,3766,2,4,-0.813825211341897,0.591444737290011,7
1147,487,7267,"p",1,2396,2.5,4,-0.397146703134846,0.591444737290011,8
1148,487,7268,"p",1,1435,3.5,4,0.436210313279257,0.591444737290011,9
1149,487,7266,"p",1,1171,4.5,1.5,1.26956732969336,-1.74512706434954,10
1150,487,7260,"p",1,2699,3.5,1.5,0.436210313279257,-1.74512706434954,11
1151,487,7263,"p",1,3075,4,4,0.852888821486308,0.591444737290011,12
1152,487,7261,"p",1,1905,2.5,5,-0.397146703134846,1.52607345794583,13
1153,487,7259,"p",1,964,3.5,3,0.436210313279257,-0.343183983365809,14
1154,487,7264,"p",1,1591,2,4,-0.813825211341897,0.591444737290011,15
1698,487,7275,"p",1,2284,4.5,3,1.26956732969336,-0.343183983365809,16
1699,487,7285,"p",1,1269,3,4,0.0195318050722055,0.591444737290011,17
1700,487,7286,"p",1,1093,2,4,-0.813825211341897,0.591444737290011,18
1701,487,7287,"p",1,1532,4,2,0.852888821486308,-1.27781270402163,19
1702,487,7279,"p",1,1807,3,4,0.0195318050722055,0.591444737290011,20
1703,487,7282,"p",1,3000,4.5,2,1.26956732969336,-1.27781270402163,21
1704,487,7277,"p",1,1124,1,5,-1.647182227756,1.52607345794583,22
1705,487,7273,"p",1,1946,2,4,-0.813825211341897,0.591444737290011,23
1706,487,7281,"q",0,1941,1.5,3,-1.23050371954895,-0.343183983365809,24
1707,487,7280,"p",1,2618,4.5,2,1.26956732969336,-1.27781270402163,25
1708,487,7288,"p",1,1283,2,3,-0.813825211341897,-0.343183983365809,26
1709,487,7283,"p",1,1725,4,3.5,0.852888821486308,0.124130376962101,27
1710,487,7276,"q",0,1382,3,2.5,0.0195318050722055,-0.810498343693718,28
1711,487,7284,"q",0,1669,4.5,4,1.26956732969336,0.591444737290011,29
1712,487,7274,"p",1,1123,2,4,-0.813825211341897,0.591444737290011,30
2413,487,7289,"p",1,6032,3,2.5,0.0195318050722055,-0.810498343693718,31
2414,487,7300,"p",1,837,1.5,4,-1.23050371954895,0.591444737290011,32
2415,487,7301,"p",1,1039,3.5,3.5,0.436210313279257,0.124130376962101,33
2416,487,7293,"p",1,1162,4,3.5,0.852888821486308,0.124130376962101,34
2417,487,7295,"p",1,718,4,2.5,0.852888821486308,-0.810498343693718,35
2418,487,7303,"p",1,478,3.5,4,0.436210313279257,0.591444737290011,36
2419,487,7302,"p",1,1303,2,4,-0.813825211341897,0.591444737290011,37
2420,487,7292,"p",1,2674,1.5,3.5,-1.23050371954895,0.124130376962101,38
2421,487,7297,"p",1,894,4,3.5,0.852888821486308,0.124130376962101,39
2422,487,7291,"p",1,1405,4.5,1.5,1.26956732969336,-1.74512706434954,40
2423,487,7299,"p",1,2366,4.5,2,1.26956732969336,-1.27781270402163,41
2424,487,7296,"p",1,1765,3,1.5,0.0195318050722055,-1.74512706434954,42
2425,487,7294,"p",1,1329,2,3.5,-0.813825211341897,0.124130376962101,43
2426,487,7298,"p",1,1186,2,4,-0.813825211341897,0.591444737290011,44
2427,487,7304,"p",1,2237,2,3,-0.813825211341897,-0.343183983365809,45
2428,487,7290,"p",1,1769,2,4,-0.813825211341897,0.591444737290011,46
3463,487,7320,"q",0,1966,2,5,-0.813825211341897,1.52607345794583,47
3464,487,7311,"p",1,2080,2,3,-0.813825211341897,-0.343183983365809,48
3465,487,7305,"p",1,1470,4.5,1.5,1.26956732969336,-1.74512706434954,49
3466,487,7319,"p",1,1358,4.5,3.5,1.26956732969336,0.124130376962101,50
3467,487,7306,"q",0,848,1.5,5,-1.23050371954895,1.52607345794583,51
3468,487,7308,"q",0,922,4,3.5,0.852888821486308,0.124130376962101,52
3469,487,7317,"q",0,1132,2,5,-0.813825211341897,1.52607345794583,53
3470,487,7307,"p",1,2057,1.5,3.5,-1.23050371954895,0.124130376962101,54
3471,487,7313,"p",1,3334,3.5,2.5,0.436210313279257,-0.810498343693718,55
3472,487,7315,"p",1,2258,5,2.5,1.68624583790041,-0.810498343693718,56
3473,487,7310,"p",1,1625,4,4.5,0.852888821486308,1.05875909761792,57
3474,487,7318,"p",1,1326,5,1.5,1.68624583790041,-1.74512706434954,58
3475,487,7316,"p",1,1823,2,3,-0.813825211341897,-0.343183983365809,59
3476,487,7309,"p",1,950,3.5,3.5,0.436210313279257,0.124130376962101,60
3477,487,7312,"q",0,1094,1.5,3.5,-1.23050371954895,0.124130376962101,61
3478,487,7314,"q",0,1093,1,5,-1.647182227756,1.52607345794583,62
1203,488,7260,"q",1,4582,3.5,1.5,0.436210313279257,-1.74512706434954,1
1204,488,7272,"p",0,2788,2,4,-0.813825211341897,0.591444737290011,2
1205,488,7262,"p",0,1127,1,5,-1.647182227756,1.52607345794583,3
1206,488,7261,"p",0,2520,2.5,5,-0.397146703134846,1.52607345794583,4
1207,488,7268,"q",1,2714,3.5,4,0.436210313279257,0.591444737290011,5
1208,488,7264,"p",0,1967,2,4,-0.813825211341897,0.591444737290011,6
1209,488,7267,"p",0,3185,2.5,4,-0.397146703134846,0.591444737290011,7
1210,488,7266,"q",1,4954,4.5,1.5,1.26956732969336,-1.74512706434954,8
1211,488,7269,"q",1,2178,4,3.5,0.852888821486308,0.124130376962101,9
1212,488,7263,"p",0,2149,4,4,0.852888821486308,0.591444737290011,10
1213,488,7259,"q",1,3266,3.5,3,0.436210313279257,-0.343183983365809,11
1214,488,7270,"p",0,1303,1.5,4.5,-1.23050371954895,1.05875909761792,12
1215,488,7258,"q",1,2170,4.5,1.5,1.26956732969336,-1.74512706434954,13
1216,488,7265,"p",0,1400,2.5,4.5,-0.397146703134846,1.05875909761792,14
1217,488,7257,"p",0,4883,2,4,-0.813825211341897,0.591444737290011,15
1218,488,7271,"q",1,1843,5,1,1.68624583790041,-2.21244142467745,16
2206,488,7286,"p",0,6676,2,4,-0.813825211341897,0.591444737290011,17
2207,488,7282,"q",1,1312,4.5,2,1.26956732969336,-1.27781270402163,18
2208,488,7280,"q",1,1540,4.5,2,1.26956732969336,-1.27781270402163,19
2209,488,7277,"p",0,2681,1,5,-1.647182227756,1.52607345794583,20
2210,488,7274,"p",0,2295,2,4,-0.813825211341897,0.591444737290011,21
2211,488,7275,"q",1,1360,4.5,3,1.26956732969336,-0.343183983365809,22
2212,488,7288,"q",1,2701,2,3,-0.813825211341897,-0.343183983365809,23
2213,488,7276,"q",1,1622,3,2.5,0.0195318050722055,-0.810498343693718,24
2214,488,7279,"p",0,3388,3,4,0.0195318050722055,0.591444737290011,25
2215,488,7287,"q",1,3028,4,2,0.852888821486308,-1.27781270402163,26
2216,488,7281,"p",0,1546,1.5,3,-1.23050371954895,-0.343183983365809,27
2217,488,7278,"p",0,3860,2,4,-0.813825211341897,0.591444737290011,28
2218,488,7273,"p",0,4398,2,4,-0.813825211341897,0.591444737290011,29
2219,488,7285,"q",1,5756,3,4,0.0195318050722055,0.591444737290011,30
2220,488,7284,"q",1,2194,4.5,4,1.26956732969336,0.591444737290011,31
2221,488,7283,"q",1,1883,4,3.5,0.852888821486308,0.124130376962101,32
3447,488,7304,"p",0,1542,2,3,-0.813825211341897,-0.343183983365809,33
3448,488,7300,"p",0,986,1.5,4,-1.23050371954895,0.591444737290011,34
3449,488,7298,"p",0,794,2,4,-0.813825211341897,0.591444737290011,35
3450,488,7290,"p",0,903,2,4,-0.813825211341897,0.591444737290011,36
3451,488,7296,"p",0,1767,3,1.5,0.0195318050722055,-1.74512706434954,37
3452,488,7299,"q",1,2571,4.5,2,1.26956732969336,-1.27781270402163,38
3453,488,7302,"p",0,2133,2,4,-0.813825211341897,0.591444737290011,39
3454,488,7303,"p",0,1988,3.5,4,0.436210313279257,0.591444737290011,40
3455,488,7301,"p",0,3722,3.5,3.5,0.436210313279257,0.124130376962101,41
3456,488,7291,"q",1,7209,4.5,1.5,1.26956732969336,-1.74512706434954,42
3457,488,7292,"p",0,2475,1.5,3.5,-1.23050371954895,0.124130376962101,43
3458,488,7294,"p",0,1565,2,3.5,-0.813825211341897,0.124130376962101,44
3459,488,7289,"p",0,1811,3,2.5,0.0195318050722055,-0.810498343693718,45
3460,488,7297,"q",1,2387,4,3.5,0.852888821486308,0.124130376962101,46
3461,488,7293,"p",0,1404,4,3.5,0.852888821486308,0.124130376962101,47
3462,488,7295,"p",0,2502,4,2.5,0.852888821486308,-0.810498343693718,48
4673,488,7308,"q",1,3971,4,3.5,0.852888821486308,0.124130376962101,49
4674,488,7320,"p",0,1688,2,5,-0.813825211341897,1.52607345794583,50
4675,488,7306,"p",0,1139,1.5,5,-1.23050371954895,1.52607345794583,51
4676,488,7319,"q",1,1779,4.5,3.5,1.26956732969336,0.124130376962101,52
4677,488,7310,"p",0,7146,4,4.5,0.852888821486308,1.05875909761792,53
4678,488,7315,"q",1,1522,5,2.5,1.68624583790041,-0.810498343693718,54
4679,488,7316,"p",0,1377,2,3,-0.813825211341897,-0.343183983365809,55
4680,488,7311,"p",0,1124,2,3,-0.813825211341897,-0.343183983365809,56
4681,488,7307,"q",1,2010,1.5,3.5,-1.23050371954895,0.124130376962101,57
4682,488,7309,"q",1,1921,3.5,3.5,0.436210313279257,0.124130376962101,58
4683,488,7305,"q",1,1972,4.5,1.5,1.26956732969336,-1.74512706434954,59
4684,488,7318,"q",1,4879,5,1.5,1.68624583790041,-1.74512706434954,60
4685,488,7313,"q",1,1724,3.5,2.5,0.436210313279257,-0.810498343693718,61
4686,488,7312,"p",0,6163,1.5,3.5,-1.23050371954895,0.124130376962101,62
4687,488,7314,"p",0,2124,1,5,-1.647182227756,1.52607345794583,63
4688,488,7317,"p",0,866,2,5,-0.813825211341897,1.52607345794583,64
663,489,7266,"p",1,5944,4.5,1.5,1.26956732969336,-1.74512706434954,1
664,489,7258,"p",1,3670,4.5,1.5,1.26956732969336,-1.74512706434954,2
665,489,7272,"q",0,1336,2,4,-0.813825211341897,0.591444737290011,3
666,489,7267,"q",0,1451,2.5,4,-0.397146703134846,0.591444737290011,4
667,489,7268,"q",0,1373,3.5,4,0.436210313279257,0.591444737290011,5
668,489,7259,"q",0,3438,3.5,3,0.436210313279257,-0.343183983365809,6
669,489,7257,"q",0,2256,2,4,-0.813825211341897,0.591444737290011,7
670,489,7269,"q",0,1908,4,3.5,0.852888821486308,0.124130376962101,8
671,489,7263,"q",0,4069,4,4,0.852888821486308,0.591444737290011,9
672,489,7260,"p",1,1041,3.5,1.5,0.436210313279257,-1.74512706434954,10
673,489,7262,"q",0,1312,1,5,-1.647182227756,1.52607345794583,11
674,489,7264,"q",0,1910,2,4,-0.813825211341897,0.591444737290011,12
675,489,7270,"q",0,1642,1.5,4.5,-1.23050371954895,1.05875909761792,13
676,489,7265,"q",0,1891,2.5,4.5,-0.397146703134846,1.05875909761792,14
677,489,7271,"p",1,2582,5,1,1.68624583790041,-2.21244142467745,15
678,489,7261,"p",1,1351,2.5,5,-0.397146703134846,1.52607345794583,16
695,489,7285,"p",1,1702,3,4,0.0195318050722055,0.591444737290011,17
696,489,7274,"q",0,1014,2,4,-0.813825211341897,0.591444737290011,18
697,489,7281,"q",0,1921,1.5,3,-1.23050371954895,-0.343183983365809,19
698,489,7288,"q",0,2690,2,3,-0.813825211341897,-0.343183983365809,20
699,489,7286,"q",0,2496,2,4,-0.813825211341897,0.591444737290011,21
700,489,7282,"p",1,3007,4.5,2,1.26956732969336,-1.27781270402163,22
701,489,7280,"p",1,4393,4.5,2,1.26956732969336,-1.27781270402163,23
702,489,7276,"q",0,1234,3,2.5,0.0195318050722055,-0.810498343693718,24
703,489,7273,"q",0,2206,2,4,-0.813825211341897,0.591444737290011,25
704,489,7287,"q",0,1448,4,2,0.852888821486308,-1.27781270402163,26
705,489,7284,"q",0,2364,4.5,4,1.26956732969336,0.591444737290011,27
706,489,7279,"q",0,4683,3,4,0.0195318050722055,0.591444737290011,28
707,489,7277,"q",0,1677,1,5,-1.647182227756,1.52607345794583,29
708,489,7278,"q",0,3568,2,4,-0.813825211341897,0.591444737290011,30
709,489,7275,"p",1,1708,4.5,3,1.26956732969336,-0.343183983365809,31
742,489,7294,"q",0,1418,2,3.5,-0.813825211341897,0.124130376962101,32
743,489,7293,"q",0,2766,4,3.5,0.852888821486308,0.124130376962101,33
744,489,7302,"q",0,1204,2,4,-0.813825211341897,0.591444737290011,34
745,489,7298,"q",0,1024,2,4,-0.813825211341897,0.591444737290011,35
746,489,7292,"q",0,1890,1.5,3.5,-1.23050371954895,0.124130376962101,36
747,489,7303,"q",0,1398,3.5,4,0.436210313279257,0.591444737290011,37
748,489,7296,"q",0,1897,3,1.5,0.0195318050722055,-1.74512706434954,38
749,489,7291,"q",0,1659,4.5,1.5,1.26956732969336,-1.74512706434954,39
750,489,7300,"q",0,1430,1.5,4,-1.23050371954895,0.591444737290011,40
751,489,7299,"q",0,1277,4.5,2,1.26956732969336,-1.27781270402163,41
752,489,7295,"q",0,2188,4,2.5,0.852888821486308,-0.810498343693718,42
753,489,7290,"q",0,1404,2,4,-0.813825211341897,0.591444737290011,43
754,489,7301,"p",1,1476,3.5,3.5,0.436210313279257,0.124130376962101,44
755,489,7289,"q",0,2417,3,2.5,0.0195318050722055,-0.810498343693718,45
756,489,7297,"q",0,3603,4,3.5,0.852888821486308,0.124130376962101,46
805,489,7306,"q",0,1811,1.5,5,-1.23050371954895,1.52607345794583,47
806,489,7318,"q",0,1798,5,1.5,1.68624583790041,-1.74512706434954,48
807,489,7305,"p",1,1529,4.5,1.5,1.26956732969336,-1.74512706434954,49
808,489,7315,"q",0,1023,5,2.5,1.68624583790041,-0.810498343693718,50
809,489,7312,"q",0,1450,1.5,3.5,-1.23050371954895,0.124130376962101,51
810,489,7313,"q",0,804,3.5,2.5,0.436210313279257,-0.810498343693718,52
811,489,7317,"q",0,882,2,5,-0.813825211341897,1.52607345794583,53
812,489,7310,"q",0,1172,4,4.5,0.852888821486308,1.05875909761792,54
813,489,7320,"q",0,1018,2,5,-0.813825211341897,1.52607345794583,55
814,489,7314,"q",0,1154,1,5,-1.647182227756,1.52607345794583,56
815,489,7319,"p",1,1602,4.5,3.5,1.26956732969336,0.124130376962101,57
816,489,7308,"p",1,5887,4,3.5,0.852888821486308,0.124130376962101,58
817,489,7311,"q",0,1437,2,3,-0.813825211341897,-0.343183983365809,59
818,489,7309,"p",1,1527,3.5,3.5,0.436210313279257,0.124130376962101,60
819,489,7316,"q",0,1695,2,3,-0.813825211341897,-0.343183983365809,61
820,489,7307,"q",0,2976,1.5,3.5,-1.23050371954895,0.124130376962101,62
1554,490,7269,"q",1,6267,4,3.5,0.852888821486308,0.124130376962101,1
1555,490,7271,"p",0,7068,5,1,1.68624583790041,-2.21244142467745,2
1556,490,7264,"q",1,1937,2,4,-0.813825211341897,0.591444737290011,3
1557,490,7265,"p",0,2400,2.5,4.5,-0.397146703134846,1.05875909761792,4
1558,490,7259,"p",0,2246,3.5,3,0.436210313279257,-0.343183983365809,5
1559,490,7268,"q",1,3203,3.5,4,0.436210313279257,0.591444737290011,6
1560,490,7262,"q",1,1051,1,5,-1.647182227756,1.52607345794583,7
1561,490,7260,"p",0,5879,3.5,1.5,0.436210313279257,-1.74512706434954,8
1562,490,7266,"p",0,2488,4.5,1.5,1.26956732969336,-1.74512706434954,9
1563,490,7257,"q",1,2982,2,4,-0.813825211341897,0.591444737290011,10
1564,490,7263,"p",0,4889,4,4,0.852888821486308,0.591444737290011,11
1565,490,7261,"q",1,2544,2.5,5,-0.397146703134846,1.52607345794583,12
1566,490,7267,"q",1,3087,2.5,4,-0.397146703134846,0.591444737290011,13
1567,490,7258,"p",0,1420,4.5,1.5,1.26956732969336,-1.74512706434954,14
1568,490,7270,"p",0,2769,1.5,4.5,-1.23050371954895,1.05875909761792,15
1569,490,7272,"q",1,1712,2,4,-0.813825211341897,0.591444737290011,16
2572,490,7287,"q",1,3312,4,2,0.852888821486308,-1.27781270402163,17
2573,490,7285,"q",1,2245,3,4,0.0195318050722055,0.591444737290011,18
2574,490,7280,"p",0,2202,4.5,2,1.26956732969336,-1.27781270402163,19
2575,490,7284,"p",0,2128,4.5,4,1.26956732969336,0.591444737290011,20
2576,490,7286,"p",0,1663,2,4,-0.813825211341897,0.591444737290011,21
2577,490,7273,"p",0,2205,2,4,-0.813825211341897,0.591444737290011,22
2578,490,7275,"q",1,1878,4.5,3,1.26956732969336,-0.343183983365809,23
2579,490,7277,"p",0,1850,1,5,-1.647182227756,1.52607345794583,24
2580,490,7276,"p",0,1996,3,2.5,0.0195318050722055,-0.810498343693718,25
2581,490,7282,"p",0,1339,4.5,2,1.26956732969336,-1.27781270402163,26
2582,490,7274,"q",1,1083,2,4,-0.813825211341897,0.591444737290011,27
2583,490,7281,"p",0,2902,1.5,3,-1.23050371954895,-0.343183983365809,28
2584,490,7288,"p",0,2832,2,3,-0.813825211341897,-0.343183983365809,29
2585,490,7283,"q",1,4770,4,3.5,0.852888821486308,0.124130376962101,30
2586,490,7278,"p",0,3608,2,4,-0.813825211341897,0.591444737290011,31
2587,490,7279,"q",1,3422,3,4,0.0195318050722055,0.591444737290011,32
3879,490,7302,"q",1,2721,2,4,-0.813825211341897,0.591444737290011,33
3880,490,7298,"q",1,1415,2,4,-0.813825211341897,0.591444737290011,34
3881,490,7295,"p",0,2274,4,2.5,0.852888821486308,-0.810498343693718,35
3882,490,7303,"q",1,2320,3.5,4,0.436210313279257,0.591444737290011,36
3883,490,7293,"q",1,1782,4,3.5,0.852888821486308,0.124130376962101,37
3884,490,7301,"p",0,3117,3.5,3.5,0.436210313279257,0.124130376962101,38
3885,490,7294,"p",0,2374,2,3.5,-0.813825211341897,0.124130376962101,39
3886,490,7290,"p",0,3233,2,4,-0.813825211341897,0.591444737290011,40
3887,490,7291,"p",0,1321,4.5,1.5,1.26956732969336,-1.74512706434954,41
3888,490,7304,"p",0,3919,2,3,-0.813825211341897,-0.343183983365809,42
3889,490,7289,"q",1,1590,3,2.5,0.0195318050722055,-0.810498343693718,43
3890,490,7292,"p",0,1834,1.5,3.5,-1.23050371954895,0.124130376962101,44
3891,490,7299,"q",1,1915,4.5,2,1.26956732969336,-1.27781270402163,45
3892,490,7297,"p",0,8117,4,3.5,0.852888821486308,0.124130376962101,46
3893,490,7296,"q",1,1586,3,1.5,0.0195318050722055,-1.74512706434954,47
3894,490,7300,"q",1,1392,1.5,4,-1.23050371954895,0.591444737290011,48
4895,490,7317,"p",0,2319,2,5,-0.813825211341897,1.52607345794583,49
4896,490,7309,"p",0,3302,3.5,3.5,0.436210313279257,0.124130376962101,50
4897,490,7313,"p",0,1809,3.5,2.5,0.436210313279257,-0.810498343693718,51
4898,490,7311,"q",1,1615,2,3,-0.813825211341897,-0.343183983365809,52
4899,490,7310,"q",1,2042,4,4.5,0.852888821486308,1.05875909761792,53
4900,490,7312,"p",0,1494,1.5,3.5,-1.23050371954895,0.124130376962101,54
4901,490,7318,"p",0,1326,5,1.5,1.68624583790041,-1.74512706434954,55
4902,490,7320,"p",0,1234,2,5,-0.813825211341897,1.52607345794583,56
4903,490,7319,"p",0,5815,4.5,3.5,1.26956732969336,0.124130376962101,57
4904,490,7305,"q",1,1837,4.5,1.5,1.26956732969336,-1.74512706434954,58
4905,490,7315,"p",0,1457,5,2.5,1.68624583790041,-0.810498343693718,59
4906,490,7306,"p",0,1830,1.5,5,-1.23050371954895,1.52607345794583,60
4907,490,7316,"q",1,2318,2,3,-0.813825211341897,-0.343183983365809,61
4908,490,7308,"p",0,1434,4,3.5,0.852888821486308,0.124130376962101,62
4909,490,7314,"p",0,2822,1,5,-1.647182227756,1.52607345794583,63
4910,490,7307,"q",1,1444,1.5,3.5,-1.23050371954895,0.124130376962101,64
1219,491,7264,"q",0,4980,2,4,-0.813825211341897,0.591444737290011,1
1220,491,7270,"q",0,3511,1.5,4.5,-1.23050371954895,1.05875909761792,2
1221,491,7271,"q",0,2263,5,1,1.68624583790041,-2.21244142467745,3
1222,491,7261,"p",1,1587,2.5,5,-0.397146703134846,1.52607345794583,4
1223,491,7259,"q",0,2388,3.5,3,0.436210313279257,-0.343183983365809,5
1224,491,7263,"p",1,1683,4,4,0.852888821486308,0.591444737290011,6
1225,491,7272,"p",1,1442,2,4,-0.813825211341897,0.591444737290011,7
1226,491,7269,"q",0,2246,4,3.5,0.852888821486308,0.124130376962101,8
1227,491,7266,"p",1,2722,4.5,1.5,1.26956732969336,-1.74512706434954,9
1228,491,7268,"p",1,1387,3.5,4,0.436210313279257,0.591444737290011,10
1229,491,7267,"q",0,1806,2.5,4,-0.397146703134846,0.591444737290011,11
1230,491,7260,"q",0,2253,3.5,1.5,0.436210313279257,-1.74512706434954,12
1231,491,7258,"q",0,1699,4.5,1.5,1.26956732969336,-1.74512706434954,13
1232,491,7262,"q",0,3366,1,5,-1.647182227756,1.52607345794583,14
1233,491,7257,"p",1,2165,2,4,-0.813825211341897,0.591444737290011,15
1234,491,7265,"p",1,2049,2.5,4.5,-0.397146703134846,1.05875909761792,16
1984,491,7276,"q",0,3670,3,2.5,0.0195318050722055,-0.810498343693718,17
1985,491,7280,"q",0,1905,4.5,2,1.26956732969336,-1.27781270402163,18
1986,491,7285,"p",1,1722,3,4,0.0195318050722055,0.591444737290011,19
1987,491,7273,"p",1,1405,2,4,-0.813825211341897,0.591444737290011,20
1988,491,7281,"q",0,1628,1.5,3,-1.23050371954895,-0.343183983365809,21
1989,491,7284,"p",1,2789,4.5,4,1.26956732969336,0.591444737290011,22
1990,491,7288,"p",1,2771,2,3,-0.813825211341897,-0.343183983365809,23
1991,491,7277,"p",1,1066,1,5,-1.647182227756,1.52607345794583,24
1992,491,7274,"p",1,1387,2,4,-0.813825211341897,0.591444737290011,25
1993,491,7286,"q",0,1827,2,4,-0.813825211341897,0.591444737290011,26
1994,491,7282,"p",1,1810,4.5,2,1.26956732969336,-1.27781270402163,27
1995,491,7283,"q",0,3040,4,3.5,0.852888821486308,0.124130376962101,28
1996,491,7278,"q",0,2009,2,4,-0.813825211341897,0.591444737290011,29
1997,491,7287,"q",0,1557,4,2,0.852888821486308,-1.27781270402163,30
1998,491,7275,"p",1,2553,4.5,3,1.26956732969336,-0.343183983365809,31
1999,491,7279,"p",1,2357,3,4,0.0195318050722055,0.591444737290011,32
3144,491,7299,"q",0,4285,4.5,2,1.26956732969336,-1.27781270402163,33
3145,491,7293,"p",1,1729,4,3.5,0.852888821486308,0.124130376962101,34
3146,491,7296,"p",1,1921,3,1.5,0.0195318050722055,-1.74512706434954,35
3147,491,7294,"p",1,1949,2,3.5,-0.813825211341897,0.124130376962101,36
3148,491,7290,"q",0,2956,2,4,-0.813825211341897,0.591444737290011,37
3149,491,7291,"p",1,4097,4.5,1.5,1.26956732969336,-1.74512706434954,38
3150,491,7302,"q",0,2371,2,4,-0.813825211341897,0.591444737290011,39
3151,491,7300,"q",0,2962,1.5,4,-1.23050371954895,0.591444737290011,40
3152,491,7298,"q",0,2282,2,4,-0.813825211341897,0.591444737290011,41
