"trial","pers","itemid","response","creative","rt","orig.rating","util.rating","orig.rating_s","util.rating_s"
1,1,7265,"p",1,943,2.5,4.5,-0.397146703134846,1.05875909761792
2,1,7270,"q",0,2117,1.5,4.5,-1.23050371954895,1.05875909761792
3,1,7264,"p",1,1244,2,4,-0.813825211341897,0.591444737290011
4,1,7267,"p",1,2274,2.5,4,-0.397146703134846,0.591444737290011
5,1,7261,"p",1,1975,2.5,5,-0.397146703134846,1.52607345794583
6,1,7268,"p",1,1753,3.5,4,0.436210313279257,0.591444737290011
7,1,7262,"q",0,1157,1,5,-1.647182227756,1.52607345794583
8,1,7258,"p",1,1520,4.5,1.5,1.26956732969336,-1.74512706434954
9,1,7269,"p",1,1902,4,3.5,0.852888821486308,0.124130376962101
10,1,7266,"p",1,1636,4.5,1.5,1.26956732969336,-1.74512706434954
11,1,7272,"q",0,1811,2,4,-0.813825211341897,0.591444737290011
12,1,7259,"p",1,2394,3.5,3,0.436210313279257,-0.343183983365809
13,1,7257,"q",0,3678,2,4,-0.813825211341897,0.591444737290011
14,1,7260,"p",1,2145,3.5,1.5,0.436210313279257,-1.74512706434954
15,1,7263,"p",1,2377,4,4,0.852888821486308,0.591444737290011
16,1,7271,"p",1,1579,5,1,1.68624583790041,-2.21244142467745
17,1,7281,"p",1,1639,1.5,3,-1.23050371954895,-0.343183983365809
18,1,7277,"q",0,1371,1,5,-1.647182227756,1.52607345794583
19,1,7279,"p",1,2435,3,4,0.0195318050722055,0.591444737290011
20,1,7278,"p",1,1708,2,4,-0.813825211341897,0.591444737290011
21,1,7283,"p",1,3657,4,3.5,0.852888821486308,0.124130376962101
22,1,7288,"p",1,2612,2,3,-0.813825211341897,-0.343183983365809
23,1,7274,"q",0,1799,2,4,-0.813825211341897,0.591444737290011
24,1,7284,"p",1,1455,4.5,4,1.26956732969336,0.591444737290011
25,1,7282,"p",1,1339,4.5,2,1.26956732969336,-1.27781270402163
26,1,7280,"p",1,2529,4.5,2,1.26956732969336,-1.27781270402163
27,1,7287,"p",1,1872,4,2,0.852888821486308,-1.27781270402163
28,1,7286,"p",1,1867,2,4,-0.813825211341897,0.591444737290011
29,1,7285,"p",1,1928,3,4,0.0195318050722055,0.591444737290011
30,1,7275,"p",1,3015,4.5,3,1.26956732969336,-0.343183983365809
31,1,7273,"q",0,2676,2,4,-0.813825211341897,0.591444737290011
32,1,7276,"p",1,2153,3,2.5,0.0195318050722055,-0.810498343693718
33,1,7294,"q",0,1629,2,3.5,-0.813825211341897,0.124130376962101
34,1,7290,"q",0,1542,2,4,-0.813825211341897,0.591444737290011
35,1,7302,"p",1,1743,2,4,-0.813825211341897,0.591444737290011
36,1,7292,"q",0,1694,1.5,3.5,-1.23050371954895,0.124130376962101
37,1,7297,"p",1,1864,4,3.5,0.852888821486308,0.124130376962101
38,1,7296,"p",1,1801,3,1.5,0.0195318050722055,-1.74512706434954
39,1,7298,"q",0,2142,2,4,-0.813825211341897,0.591444737290011
40,1,7299,"p",1,3209,4.5,2,1.26956732969336,-1.27781270402163
41,1,7291,"p",1,1760,4.5,1.5,1.26956732969336,-1.74512706434954
42,1,7295,"q",0,2446,4,2.5,0.852888821486308,-0.810498343693718
43,1,7304,"p",1,2328,2,3,-0.813825211341897,-0.343183983365809
44,1,7303,"p",1,2419,3.5,4,0.436210313279257,0.591444737290011
45,1,7289,"q",0,2447,3,2.5,0.0195318050722055,-0.810498343693718
46,1,7300,"q",0,1464,1.5,4,-1.23050371954895,0.591444737290011
47,1,7293,"p",1,2919,4,3.5,0.852888821486308,0.124130376962101
48,1,7301,"p",1,2918,3.5,3.5,0.436210313279257,0.124130376962101
49,1,7319,"p",1,1804,4.5,3.5,1.26956732969336,0.124130376962101
50,1,7307,"q",0,1490,1.5,3.5,-1.23050371954895,0.124130376962101
51,1,7315,"p",1,1098,5,2.5,1.68624583790041,-0.810498343693718
52,1,7316,"q",0,1667,2,3,-0.813825211341897,-0.343183983365809
53,1,7308,"p",1,1449,4,3.5,0.852888821486308,0.124130376962101
54,1,7309,"p",1,1906,3.5,3.5,0.436210313279257,0.124130376962101
55,1,7320,"q",0,1741,2,5,-0.813825211341897,1.52607345794583
56,1,7305,"p",1,1649,4.5,1.5,1.26956732969336,-1.74512706434954
57,1,7310,"p",1,1701,4,4.5,0.852888821486308,1.05875909761792
58,1,7311,"q",0,1400,2,3,-0.813825211341897,-0.343183983365809
59,1,7306,"p",1,1155,1.5,5,-1.23050371954895,1.52607345794583
60,1,7314,"q",0,1768,1,5,-1.647182227756,1.52607345794583
61,1,7313,"p",1,1485,3.5,2.5,0.436210313279257,-0.810498343693718
62,1,7317,"p",1,1747,2,5,-0.813825211341897,1.52607345794583
63,1,7318,"q",0,1163,5,1.5,1.68624583790041,-1.74512706434954
64,1,7312,"q",0,2489,1.5,3.5,-1.23050371954895,0.124130376962101
1,2,7271,"q",1,8142,5,1,1.68624583790041,-2.21244142467745
2,2,7268,"q",1,43,3.5,4,0.436210313279257,0.591444737290011
3,2,7263,"q",1,5082,4,4,0.852888821486308,0.591444737290011
4,2,7267,"q",1,2507,2.5,4,-0.397146703134846,0.591444737290011
5,2,7266,"q",1,3067,4.5,1.5,1.26956732969336,-1.74512706434954
6,2,7264,"p",0,1475,2,4,-0.813825211341897,0.591444737290011
7,2,7262,"p",0,995,1,5,-1.647182227756,1.52607345794583
8,2,7257,"q",1,2762,2,4,-0.813825211341897,0.591444737290011
9,2,7259,"q",1,2832,3.5,3,0.436210313279257,-0.343183983365809
10,2,7258,"q",1,1906,4.5,1.5,1.26956732969336,-1.74512706434954
11,2,7261,"q",1,3274,2.5,5,-0.397146703134846,1.52607345794583
12,2,7260,"q",1,3009,3.5,1.5,0.436210313279257,-1.74512706434954
13,2,7272,"p",0,2046,2,4,-0.813825211341897,0.591444737290011
14,2,7269,"q",1,1969,4,3.5,0.852888821486308,0.124130376962101
15,2,7265,"p",0,2250,2.5,4.5,-0.397146703134846,1.05875909761792
16,2,7270,"p",0,3210,1.5,4.5,-1.23050371954895,1.05875909761792
17,2,7283,"q",1,2453,4,3.5,0.852888821486308,0.124130376962101
18,2,7277,"q",1,1025,1,5,-1.647182227756,1.52607345794583
19,2,7278,"p",0,4851,2,4,-0.813825211341897,0.591444737290011
20,2,7286,"p",0,2111,2,4,-0.813825211341897,0.591444737290011
21,2,7279,"p",0,2586,3,4,0.0195318050722055,0.591444737290011
22,2,7282,"q",1,1250,4.5,2,1.26956732969336,-1.27781270402163
23,2,7287,"q",1,1699,4,2,0.852888821486308,-1.27781270402163
24,2,7284,"q",1,4121,4.5,4,1.26956732969336,0.591444737290011
25,2,7274,"q",1,1412,2,4,-0.813825211341897,0.591444737290011
26,2,7275,"q",1,1748,4.5,3,1.26956732969336,-0.343183983365809
27,2,7280,"q",1,3123,4.5,2,1.26956732969336,-1.27781270402163
28,2,7285,"q",1,2157,3,4,0.0195318050722055,0.591444737290011
29,2,7281,"p",0,1551,1.5,3,-1.23050371954895,-0.343183983365809
30,2,7276,"q",1,2637,3,2.5,0.0195318050722055,-0.810498343693718
31,2,7288,"q",1,2473,2,3,-0.813825211341897,-0.343183983365809
32,2,7273,"p",0,2166,2,4,-0.813825211341897,0.591444737290011
33,2,7301,"q",1,7591,3.5,3.5,0.436210313279257,0.124130376962101
34,2,7291,"q",1,3882,4.5,1.5,1.26956732969336,-1.74512706434954
35,2,7295,"q",1,7908,4,2.5,0.852888821486308,-0.810498343693718
36,2,7289,"q",1,2299,3,2.5,0.0195318050722055,-0.810498343693718
37,2,7297,"q",1,2107,4,3.5,0.852888821486308,0.124130376962101
38,2,7292,"p",0,1578,1.5,3.5,-1.23050371954895,0.124130376962101
39,2,7294,"p",0,4770,2,3.5,-0.813825211341897,0.124130376962101
40,2,7290,"p",0,1164,2,4,-0.813825211341897,0.591444737290011
41,2,7302,"q",1,1749,2,4,-0.813825211341897,0.591444737290011
42,2,7300,"p",0,1280,1.5,4,-1.23050371954895,0.591444737290011
43,2,7303,"q",1,1467,3.5,4,0.436210313279257,0.591444737290011
44,2,7304,"q",1,3538,2,3,-0.813825211341897,-0.343183983365809
45,2,7293,"q",1,1440,4,3.5,0.852888821486308,0.124130376962101
46,2,7298,"p",0,1070,2,4,-0.813825211341897,0.591444737290011
47,2,7299,"q",1,1105,4.5,2,1.26956732969336,-1.27781270402163
48,2,7296,"q",1,1013,3,1.5,0.0195318050722055,-1.74512706434954
49,2,7309,"q",1,2187,3.5,3.5,0.436210313279257,0.124130376962101
50,2,7317,"q",1,1204,2,5,-0.813825211341897,1.52607345794583
51,2,7316,"p",0,1013,2,3,-0.813825211341897,-0.343183983365809
52,2,7310,"q",1,1080,4,4.5,0.852888821486308,1.05875909761792
53,2,7308,"q",1,906,4,3.5,0.852888821486308,0.124130376962101
54,2,7313,"p",0,1706,3.5,2.5,0.436210313279257,-0.810498343693718
55,2,7318,"q",1,3383,5,1.5,1.68624583790041,-1.74512706434954
56,2,7315,"q",1,5175,5,2.5,1.68624583790041,-0.810498343693718
57,2,7305,"q",1,6301,4.5,1.5,1.26956732969336,-1.74512706434954
58,2,7312,"p",0,1766,1.5,3.5,-1.23050371954895,0.124130376962101
59,2,7320,"p",0,2305,2,5,-0.813825211341897,1.52607345794583
60,2,7314,"p",0,1359,1,5,-1.647182227756,1.52607345794583
61,2,7306,"q",1,2165,1.5,5,-1.23050371954895,1.52607345794583
62,2,7311,"p",0,1645,2,3,-0.813825211341897,-0.343183983365809
63,2,7307,"p",0,2088,1.5,3.5,-1.23050371954895,0.124130376962101
64,2,7319,"q",1,1405,4.5,3.5,1.26956732969336,0.124130376962101
1,3,7263,"q",0,2461,4,4,0.852888821486308,0.591444737290011
2,3,7268,"p",1,1738,3.5,4,0.436210313279257,0.591444737290011
3,3,7271,"p",1,1678,5,1,1.68624583790041,-2.21244142467745
4,3,7264,"p",1,1129,2,4,-0.813825211341897,0.591444737290011
5,3,7266,"q",0,1224,4.5,1.5,1.26956732969336,-1.74512706434954
6,3,7262,"q",0,1175,1,5,-1.647182227756,1.52607345794583
7,3,7259,"q",0,1362,3.5,3,0.436210313279257,-0.343183983365809
8,3,7269,"q",0,1811,4,3.5,0.852888821486308,0.124130376962101
9,3,7265,"q",0,1385,2.5,4.5,-0.397146703134846,1.05875909761792
10,3,7258,"p",1,924,4.5,1.5,1.26956732969336,-1.74512706434954
11,3,7260,"p",1,827,3.5,1.5,0.436210313279257,-1.74512706434954
12,3,7270,"q",0,1089,1.5,4.5,-1.23050371954895,1.05875909761792
13,3,7267,"q",0,1710,2.5,4,-0.397146703134846,0.591444737290011
14,3,7257,"q",0,1500,2,4,-0.813825211341897,0.591444737290011
15,3,7272,"q",0,1125,2,4,-0.813825211341897,0.591444737290011
16,3,7261,"q",0,1696,2.5,5,-0.397146703134846,1.52607345794583
17,3,7280,"p",1,897,4.5,2,1.26956732969336,-1.27781270402163
18,3,7283,"q",0,1461,4,3.5,0.852888821486308,0.124130376962101
19,3,7275,"p",1,1174,4.5,3,1.26956732969336,-0.343183983365809
20,3,7274,"q",0,1282,2,4,-0.813825211341897,0.591444737290011
21,3,7287,"q",0,1564,4,2,0.852888821486308,-1.27781270402163
22,3,7276,"p",1,1294,3,2.5,0.0195318050722055,-0.810498343693718
23,3,7278,"q",0,1090,2,4,-0.813825211341897,0.591444737290011
24,3,7282,"p",1,1421,4.5,2,1.26956732969336,-1.27781270402163
25,3,7273,"q",0,1531,2,4,-0.813825211341897,0.591444737290011
26,3,7285,"q",0,1366,3,4,0.0195318050722055,0.591444737290011
27,3,7284,"p",1,1265,4.5,4,1.26956732969336,0.591444737290011
28,3,7286,"q",0,996,2,4,-0.813825211341897,0.591444737290011
29,3,7277,"q",0,1182,1,5,-1.647182227756,1.52607345794583
30,3,7279,"q",0,1945,3,4,0.0195318050722055,0.591444737290011
31,3,7288,"q",0,1878,2,3,-0.813825211341897,-0.343183983365809
32,3,7281,"q",0,4114,1.5,3,-1.23050371954895,-0.343183983365809
33,3,7292,"q",0,2278,1.5,3.5,-1.23050371954895,0.124130376962101
34,3,7290,"q",0,1358,2,4,-0.813825211341897,0.591444737290011
35,3,7293,"p",1,1059,4,3.5,0.852888821486308,0.124130376962101
36,3,7294,"q",0,959,2,3.5,-0.813825211341897,0.124130376962101
37,3,7301,"p",1,1131,3.5,3.5,0.436210313279257,0.124130376962101
38,3,7295,"q",0,958,4,2.5,0.852888821486308,-0.810498343693718
39,3,7291,"q",0,813,4.5,1.5,1.26956732969336,-1.74512706434954
40,3,7298,"q",0,748,2,4,-0.813825211341897,0.591444737290011
41,3,7300,"q",0,1049,1.5,4,-1.23050371954895,0.591444737290011
42,3,7304,"q",0,1011,2,3,-0.813825211341897,-0.343183983365809
43,3,7302,"q",0,1146,2,4,-0.813825211341897,0.591444737290011
44,3,7299,"p",1,1178,4.5,2,1.26956732969336,-1.27781270402163
45,3,7296,"q",0,765,3,1.5,0.0195318050722055,-1.74512706434954
46,3,7303,"q",0,1528,3.5,4,0.436210313279257,0.591444737290011
47,3,7289,"q",0,984,3,2.5,0.0195318050722055,-0.810498343693718
48,3,7297,"q",0,1194,4,3.5,0.852888821486308,0.124130376962101
49,3,7314,"q",0,1179,1,5,-1.647182227756,1.52607345794583
50,3,7316,"q",0,1309,2,3,-0.813825211341897,-0.343183983365809
51,3,7319,"p",1,971,4.5,3.5,1.26956732969336,0.124130376962101
52,3,7308,"p",1,1412,4,3.5,0.852888821486308,0.124130376962101
53,3,7310,"q",0,914,4,4.5,0.852888821486308,1.05875909761792
54,3,7318,"q",0,3682,5,1.5,1.68624583790041,-1.74512706434954
55,3,7313,"p",1,1579,3.5,2.5,0.436210313279257,-0.810498343693718
56,3,7311,"q",0,768,2,3,-0.813825211341897,-0.343183983365809
57,3,7309,"p",1,1052,3.5,3.5,0.436210313279257,0.124130376962101
58,3,7320,"p",1,982,2,5,-0.813825211341897,1.52607345794583
59,3,7317,"q",0,1265,2,5,-0.813825211341897,1.52607345794583
60,3,7305,"q",0,1140,4.5,1.5,1.26956732969336,-1.74512706434954
61,3,7312,"q",0,2484,1.5,3.5,-1.23050371954895,0.124130376962101
62,3,7307,"q",0,1310,1.5,3.5,-1.23050371954895,0.124130376962101
63,3,7315,"q",0,2266,5,2.5,1.68624583790041,-0.810498343693718
64,3,7306,"q",0,1250,1.5,5,-1.23050371954895,1.52607345794583
1,4,7258,"p",0,2138,4.5,1.5,1.26956732969336,-1.74512706434954
2,4,7262,"q",1,1196,1,5,-1.647182227756,1.52607345794583
3,4,7257,"q",1,4217,2,4,-0.813825211341897,0.591444737290011
4,4,7271,"q",1,2734,5,1,1.68624583790041,-2.21244142467745
5,4,7266,"q",1,2634,4.5,1.5,1.26956732969336,-1.74512706434954
6,4,7272,"p",0,2189,2,4,-0.813825211341897,0.591444737290011
7,4,7269,"q",1,1683,4,3.5,0.852888821486308,0.124130376962101
8,4,7268,"q",1,2802,3.5,4,0.436210313279257,0.591444737290011
9,4,7259,"q",1,3281,3.5,3,0.436210313279257,-0.343183983365809
10,4,7261,"q",1,1696,2.5,5,-0.397146703134846,1.52607345794583
11,4,7270,"q",1,2204,1.5,4.5,-1.23050371954895,1.05875909761792
12,4,7264,"q",1,1596,2,4,-0.813825211341897,0.591444737290011
13,4,7265,"p",0,3645,2.5,4.5,-0.397146703134846,1.05875909761792
14,4,7263,"q",1,2340,4,4,0.852888821486308,0.591444737290011
15,4,7260,"q",1,2014,3.5,1.5,0.436210313279257,-1.74512706434954
16,4,7267,"q",1,2505,2.5,4,-0.397146703134846,0.591444737290011
17,4,7278,"p",0,3003,2,4,-0.813825211341897,0.591444737290011
18,4,7283,"q",1,3202,4,3.5,0.852888821486308,0.124130376962101
19,4,7281,"q",1,2403,1.5,3,-1.23050371954895,-0.343183983365809
20,4,7276,"q",1,4248,3,2.5,0.0195318050722055,-0.810498343693718
21,4,7287,"q",1,1728,4,2,0.852888821486308,-1.27781270402163
22,4,7277,"p",0,1473,1,5,-1.647182227756,1.52607345794583
23,4,7288,"q",1,1700,2,3,-0.813825211341897,-0.343183983365809
24,4,7273,"q",1,2732,2,4,-0.813825211341897,0.591444737290011
25,4,7282,"q",1,2282,4.5,2,1.26956732969336,-1.27781270402163
26,4,7279,"q",1,4515,3,4,0.0195318050722055,0.591444737290011
27,4,7284,"q",1,1818,4.5,4,1.26956732969336,0.591444737290011
28,4,7286,"q",1,2619,2,4,-0.813825211341897,0.591444737290011
29,4,7274,"q",1,1864,2,4,-0.813825211341897,0.591444737290011
30,4,7285,"q",1,2761,3,4,0.0195318050722055,0.591444737290011
31,4,7280,"p",0,1327,4.5,2,1.26956732969336,-1.27781270402163
32,4,7275,"q",1,1798,4.5,3,1.26956732969336,-0.343183983365809
33,4,7304,"q",1,2796,2,3,-0.813825211341897,-0.343183983365809
34,4,7295,"p",0,2057,4,2.5,0.852888821486308,-0.810498343693718
35,4,7299,"q",1,3786,4.5,2,1.26956732969336,-1.27781270402163
36,4,7296,"q",1,2333,3,1.5,0.0195318050722055,-1.74512706434954
37,4,7301,"q",1,3193,3.5,3.5,0.436210313279257,0.124130376962101
38,4,7303,"q",1,2421,3.5,4,0.436210313279257,0.591444737290011
39,4,7290,"q",1,2507,2,4,-0.813825211341897,0.591444737290011
40,4,7300,"p",0,2077,1.5,4,-1.23050371954895,0.591444737290011
41,4,7293,"q",1,1643,4,3.5,0.852888821486308,0.124130376962101
42,4,7302,"p",0,4677,2,4,-0.813825211341897,0.591444737290011
43,4,7297,"q",1,1932,4,3.5,0.852888821486308,0.124130376962101
44,4,7289,"q",1,4345,3,2.5,0.0195318050722055,-0.810498343693718
45,4,7298,"q",1,1996,2,4,-0.813825211341897,0.591444737290011
46,4,7291,"p",0,2744,4.5,1.5,1.26956732969336,-1.74512706434954
47,4,7294,"p",0,2540,2,3.5,-0.813825211341897,0.124130376962101
48,4,7292,"p",0,1466,1.5,3.5,-1.23050371954895,0.124130376962101
49,4,7315,"p",0,1377,5,2.5,1.68624583790041,-0.810498343693718
50,4,7310,"q",1,1290,4,4.5,0.852888821486308,1.05875909761792
51,4,7311,"q",1,2505,2,3,-0.813825211341897,-0.343183983365809
52,4,7316,"p",0,5137,2,3,-0.813825211341897,-0.343183983365809
53,4,7318,"p",0,1774,5,1.5,1.68624583790041,-1.74512706434954
54,4,7313,"p",0,2798,3.5,2.5,0.436210313279257,-0.810498343693718
55,4,7314,"q",1,1335,1,5,-1.647182227756,1.52607345794583
56,4,7319,"q",1,1419,4.5,3.5,1.26956732969336,0.124130376962101
57,4,7312,"q",1,2084,1.5,3.5,-1.23050371954895,0.124130376962101
58,4,7307,"q",1,3978,1.5,3.5,-1.23050371954895,0.124130376962101
59,4,7309,"q",1,2624,3.5,3.5,0.436210313279257,0.124130376962101
60,4,7317,"q",1,2408,2,5,-0.813825211341897,1.52607345794583
61,4,7306,"q",1,1018,1.5,5,-1.23050371954895,1.52607345794583
62,4,7320,"q",1,1094,2,5,-0.813825211341897,1.52607345794583
63,4,7305,"q",1,4052,4.5,1.5,1.26956732969336,-1.74512706434954
64,4,7308,"q",1,2464,4,3.5,0.852888821486308,0.124130376962101
1,5,7264,"q",0,2694,2,4,-0.813825211341897,0.591444737290011
2,5,7260,"p",1,2102,3.5,1.5,0.436210313279257,-1.74512706434954
3,5,7265,"q",0,1852,2.5,4.5,-0.397146703134846,1.05875909761792
4,5,7271,"q",0,2361,5,1,1.68624583790041,-2.21244142467745
5,5,7258,"p",1,1197,4.5,1.5,1.26956732969336,-1.74512706434954
6,5,7268,"p",1,2572,3.5,4,0.436210313279257,0.591444737290011
7,5,7269,"p",1,2465,4,3.5,0.852888821486308,0.124130376962101
8,5,7272,"p",1,2174,2,4,-0.813825211341897,0.591444737290011
9,5,7261,"p",1,1900,2.5,5,-0.397146703134846,1.52607345794583
10,5,7270,"p",1,875,1.5,4.5,-1.23050371954895,1.05875909761792
11,5,7267,"p",1,1095,2.5,4,-0.397146703134846,0.591444737290011
12,5,7266,"q",0,934,4.5,1.5,1.26956732969336,-1.74512706434954
13,5,7257,"q",0,2272,2,4,-0.813825211341897,0.591444737290011
14,5,7259,"q",0,1152,3.5,3,0.436210313279257,-0.343183983365809
15,5,7263,"p",1,1727,4,4,0.852888821486308,0.591444737290011
16,5,7262,"q",0,1603,1,5,-1.647182227756,1.52607345794583
17,5,7287,"p",1,2374,4,2,0.852888821486308,-1.27781270402163
18,5,7279,"p",1,2555,3,4,0.0195318050722055,0.591444737290011
19,5,7277,"q",0,1155,1,5,-1.647182227756,1.52607345794583
20,5,7280,"q",0,2968,4.5,2,1.26956732969336,-1.27781270402163
21,5,7282,"q",0,1490,4.5,2,1.26956732969336,-1.27781270402163
22,5,7278,"q",0,2530,2,4,-0.813825211341897,0.591444737290011
23,5,7273,"q",0,3087,2,4,-0.813825211341897,0.591444737290011
24,5,7274,"p",1,2143,2,4,-0.813825211341897,0.591444737290011
25,5,7281,"q",0,1032,1.5,3,-1.23050371954895,-0.343183983365809
26,5,7283,"p",1,3011,4,3.5,0.852888821486308,0.124130376962101
27,5,7284,"p",1,2401,4.5,4,1.26956732969336,0.591444737290011
28,5,7285,"p",1,1503,3,4,0.0195318050722055,0.591444737290011
29,5,7275,"p",1,1795,4.5,3,1.26956732969336,-0.343183983365809
30,5,7276,"q",0,724,3,2.5,0.0195318050722055,-0.810498343693718
31,5,7286,"q",0,775,2,4,-0.813825211341897,0.591444737290011
32,5,7290,"q",0,1444,2,4,-0.813825211341897,0.591444737290011
33,5,7296,"p",1,1062,3,1.5,0.0195318050722055,-1.74512706434954
34,5,7301,"p",1,1106,3.5,3.5,0.436210313279257,0.124130376962101
35,5,7302,"p",1,737,2,4,-0.813825211341897,0.591444737290011
36,5,7304,"q",0,626,2,3,-0.813825211341897,-0.343183983365809
37,5,7294,"p",1,921,2,3.5,-0.813825211341897,0.124130376962101
38,5,7295,"p",1,1743,4,2.5,0.852888821486308,-0.810498343693718
39,5,7303,"q",0,1053,3.5,4,0.436210313279257,0.591444737290011
40,5,7300,"q",0,1048,1.5,4,-1.23050371954895,0.591444737290011
41,5,7291,"q",0,1542,4.5,1.5,1.26956732969336,-1.74512706434954
42,5,7298,"q",0,973,2,4,-0.813825211341897,0.591444737290011
43,5,7297,"p",1,1879,4,3.5,0.852888821486308,0.124130376962101
44,5,7293,"p",1,1345,4,3.5,0.852888821486308,0.124130376962101
45,5,7289,"p",1,1427,3,2.5,0.0195318050722055,-0.810498343693718
46,5,7299,"q",0,1879,4.5,2,1.26956732969336,-1.27781270402163
47,5,7292,"q",0,909,1.5,3.5,-1.23050371954895,0.124130376962101
48,5,7313,"p",1,2031,3.5,2.5,0.436210313279257,-0.810498343693718
49,5,7305,"p",1,1252,4.5,1.5,1.26956732969336,-1.74512706434954
50,5,7306,"q",0,3009,1.5,5,-1.23050371954895,1.52607345794583
51,5,7308,"p",1,1179,4,3.5,0.852888821486308,0.124130376962101
52,5,7320,"q",0,770,2,5,-0.813825211341897,1.52607345794583
53,5,7307,"q",0,2009,1.5,3.5,-1.23050371954895,0.124130376962101
54,5,7319,"p",1,3504,4.5,3.5,1.26956732969336,0.124130376962101
55,5,7316,"q",0,1598,2,3,-0.813825211341897,-0.343183983365809
56,5,7311,"p",1,1021,2,3,-0.813825211341897,-0.343183983365809
57,5,7312,"q",0,1048,1.5,3.5,-1.23050371954895,0.124130376962101
58,5,7309,"p",1,1920,3.5,3.5,0.436210313279257,0.124130376962101
59,5,7317,"p",1,1705,2,5,-0.813825211341897,1.52607345794583
60,5,7315,"q",0,1499,5,2.5,1.68624583790041,-0.810498343693718
61,5,7310,"p",1,1323,4,4.5,0.852888821486308,1.05875909761792
62,5,7318,"p",1,2751,5,1.5,1.68624583790041,-1.74512706434954
63,5,7314,"q",0,1642,1,5,-1.647182227756,1.52607345794583
1,6,7258,"p",0,436,4.5,1.5,1.26956732969336,-1.74512706434954
2,6,7265,"p",0,836,2.5,4.5,-0.397146703134846,1.05875909761792
3,6,7272,"q",1,1187,2,4,-0.813825211341897,0.591444737290011
4,6,7263,"q",1,1187,4,4,0.852888821486308,0.591444737290011
5,6,7268,"p",0,1508,3.5,4,0.436210313279257,0.591444737290011
6,6,7266,"p",0,1621,4.5,1.5,1.26956732969336,-1.74512706434954
7,6,7270,"q",1,1173,1.5,4.5,-1.23050371954895,1.05875909761792
8,6,7261,"q",1,2198,2.5,5,-0.397146703134846,1.52607345794583
9,6,7264,"q",1,914,2,4,-0.813825211341897,0.591444737290011
10,6,7262,"q",1,754,1,5,-1.647182227756,1.52607345794583
11,6,7259,"p",0,1395,3.5,3,0.436210313279257,-0.343183983365809
12,6,7257,"q",1,1591,2,4,-0.813825211341897,0.591444737290011
13,6,7269,"q",1,1274,4,3.5,0.852888821486308,0.124130376962101
14,6,7271,"q",1,988,5,1,1.68624583790041,-2.21244142467745
15,6,7260,"p",0,1645,3.5,1.5,0.436210313279257,-1.74512706434954
16,6,7267,"q",1,1652,2.5,4,-0.397146703134846,0.591444737290011
17,6,7287,"p",0,1617,4,2,0.852888821486308,-1.27781270402163
18,6,7284,"p",0,1308,4.5,4,1.26956732969336,0.591444737290011
19,6,7282,"p",0,913,4.5,2,1.26956732969336,-1.27781270402163
20,6,7288,"q",1,849,2,3,-0.813825211341897,-0.343183983365809
21,6,7274,"q",1,688,2,4,-0.813825211341897,0.591444737290011
22,6,7273,"q",1,1217,2,4,-0.813825211341897,0.591444737290011
23,6,7285,"q",1,826,3,4,0.0195318050722055,0.591444737290011
24,6,7286,"q",1,589,2,4,-0.813825211341897,0.591444737290011
25,6,7283,"q",1,1762,4,3.5,0.852888821486308,0.124130376962101
26,6,7278,"q",1,1142,2,4,-0.813825211341897,0.591444737290011
27,6,7277,"q",1,1027,1,5,-1.647182227756,1.52607345794583
28,6,7279,"q",1,1104,3,4,0.0195318050722055,0.591444737290011
29,6,7281,"p",0,1318,1.5,3,-1.23050371954895,-0.343183983365809
30,6,7276,"p",0,1634,3,2.5,0.0195318050722055,-0.810498343693718
31,6,7275,"q",1,1275,4.5,3,1.26956732969336,-0.343183983365809
32,6,7280,"p",0,970,4.5,2,1.26956732969336,-1.27781270402163
33,6,7292,"p",0,796,1.5,3.5,-1.23050371954895,0.124130376962101
34,6,7290,"q",1,696,2,4,-0.813825211341897,0.591444737290011
35,6,7302,"q",1,718,2,4,-0.813825211341897,0.591444737290011
36,6,7289,"q",1,690,3,2.5,0.0195318050722055,-0.810498343693718
37,6,7297,"q",1,1109,4,3.5,0.852888821486308,0.124130376962101
38,6,7294,"q",1,1005,2,3.5,-0.813825211341897,0.124130376962101
39,6,7296,"q",1,250,3,1.5,0.0195318050722055,-1.74512706434954
40,6,7295,"p",0,750,4,2.5,0.852888821486308,-0.810498343693718
41,6,7298,"q",1,750,2,4,-0.813825211341897,0.591444737290011
42,6,7293,"q",1,1097,4,3.5,0.852888821486308,0.124130376962101
43,6,7300,"q",1,1062,1.5,4,-1.23050371954895,0.591444737290011
44,6,7299,"q",1,856,4.5,2,1.26956732969336,-1.27781270402163
45,6,7291,"q",1,642,4.5,1.5,1.26956732969336,-1.74512706434954
46,6,7301,"p",0,1088,3.5,3.5,0.436210313279257,0.124130376962101
47,6,7304,"p",0,1513,2,3,-0.813825211341897,-0.343183983365809
48,6,7303,"q",1,932,3.5,4,0.436210313279257,0.591444737290011
49,6,7316,"q",1,1325,2,3,-0.813825211341897,-0.343183983365809
50,6,7309,"q",1,1122,3.5,3.5,0.436210313279257,0.124130376962101
51,6,7319,"q",1,1161,4.5,3.5,1.26956732969336,0.124130376962101
52,6,7311,"q",1,1047,2,3,-0.813825211341897,-0.343183983365809
53,6,7320,"q",1,1415,2,5,-0.813825211341897,1.52607345794583
54,6,7315,"p",0,773,5,2.5,1.68624583790041,-0.810498343693718
55,6,7313,"q",1,1082,3.5,2.5,0.436210313279257,-0.810498343693718
56,6,7305,"q",1,1580,4.5,1.5,1.26956732969336,-1.74512706434954
57,6,7308,"q",1,923,4,3.5,0.852888821486308,0.124130376962101
58,6,7306,"q",1,1163,1.5,5,-1.23050371954895,1.52607345794583
59,6,7310,"q",1,32,4,4.5,0.852888821486308,1.05875909761792
60,6,7317,"q",1,654,2,5,-0.813825211341897,1.52607345794583
61,6,7314,"q",1,810,1,5,-1.647182227756,1.52607345794583
62,6,7318,"q",1,570,5,1.5,1.68624583790041,-1.74512706434954
63,6,7307,"q",1,1590,1.5,3.5,-1.23050371954895,0.124130376962101
64,6,7312,"p",0,1784,1.5,3.5,-1.23050371954895,0.124130376962101
1,7,7259,"p",1,5933,3.5,3,0.436210313279257,-0.343183983365809
2,7,7261,"q",0,4998,2.5,5,-0.397146703134846,1.52607345794583
3,7,7260,"p",1,2837,3.5,1.5,0.436210313279257,-1.74512706434954
4,7,7271,"p",1,1186,5,1,1.68624583790041,-2.21244142467745
5,7,7265,"q",0,3644,2.5,4.5,-0.397146703134846,1.05875909761792
6,7,7272,"p",1,1839,2,4,-0.813825211341897,0.591444737290011
7,7,7257,"p",1,3647,2,4,-0.813825211341897,0.591444737290011
8,7,7267,"p",1,1780,2.5,4,-0.397146703134846,0.591444737290011
9,7,7266,"p",1,2482,4.5,1.5,1.26956732969336,-1.74512706434954
10,7,7258,"p",1,1749,4.5,1.5,1.26956732969336,-1.74512706434954
11,7,7264,"q",0,1607,2,4,-0.813825211341897,0.591444737290011
12,7,7268,"p",1,1497,3.5,4,0.436210313279257,0.591444737290011
13,7,7263,"p",1,2504,4,4,0.852888821486308,0.591444737290011
14,7,7270,"q",0,1899,1.5,4.5,-1.23050371954895,1.05875909761792
15,7,7269,"p",1,1816,4,3.5,0.852888821486308,0.124130376962101
16,7,7262,"q",0,1080,1,5,-1.647182227756,1.52607345794583
17,7,7287,"p",1,2079,4,2,0.852888821486308,-1.27781270402163
18,7,7280,"p",1,4017,4.5,2,1.26956732969336,-1.27781270402163
19,7,7276,"p",1,2625,3,2.5,0.0195318050722055,-0.810498343693718
20,7,7285,"p",1,2268,3,4,0.0195318050722055,0.591444737290011
21,7,7273,"p",1,5535,2,4,-0.813825211341897,0.591444737290011
22,7,7283,"p",1,2613,4,3.5,0.852888821486308,0.124130376962101
23,7,7275,"p",1,2273,4.5,3,1.26956732969336,-0.343183983365809
24,7,7286,"q",0,6356,2,4,-0.813825211341897,0.591444737290011
25,7,7277,"q",0,1532,1,5,-1.647182227756,1.52607345794583
26,7,7278,"p",1,6560,2,4,-0.813825211341897,0.591444737290011
27,7,7279,"q",0,8234,3,4,0.0195318050722055,0.591444737290011
28,7,7274,"q",0,1751,2,4,-0.813825211341897,0.591444737290011
29,7,7282,"p",1,2126,4.5,2,1.26956732969336,-1.27781270402163
30,7,7284,"p",1,1890,4.5,4,1.26956732969336,0.591444737290011
31,7,7281,"q",0,2396,1.5,3,-1.23050371954895,-0.343183983365809
32,7,7288,"p",1,1885,2,3,-0.813825211341897,-0.343183983365809
33,7,7304,"q",0,3795,2,3,-0.813825211341897,-0.343183983365809
34,7,7301,"p",1,2293,3.5,3.5,0.436210313279257,0.124130376962101
35,7,7299,"p",1,1533,4.5,2,1.26956732969336,-1.27781270402163
36,7,7289,"q",0,1405,3,2.5,0.0195318050722055,-0.810498343693718
37,7,7303,"q",0,2938,3.5,4,0.436210313279257,0.591444737290011
38,7,7302,"q",0,1197,2,4,-0.813825211341897,0.591444737290011
39,7,7298,"q",0,901,2,4,-0.813825211341897,0.591444737290011
40,7,7294,"q",0,2992,2,3.5,-0.813825211341897,0.124130376962101
41,7,7300,"q",0,1523,1.5,4,-1.23050371954895,0.591444737290011
42,7,7297,"p",1,3364,4,3.5,0.852888821486308,0.124130376962101
43,7,7293,"q",0,1153,4,3.5,0.852888821486308,0.124130376962101
44,7,7296,"p",1,3319,3,1.5,0.0195318050722055,-1.74512706434954
45,7,7290,"q",0,2180,2,4,-0.813825211341897,0.591444737290011
46,7,7295,"q",0,2013,4,2.5,0.852888821486308,-0.810498343693718
47,7,7291,"p",1,3072,4.5,1.5,1.26956732969336,-1.74512706434954
48,7,7292,"q",0,1971,1.5,3.5,-1.23050371954895,0.124130376962101
49,7,7317,"p",1,1144,2,5,-0.813825211341897,1.52607345794583
50,7,7307,"p",1,1831,1.5,3.5,-1.23050371954895,0.124130376962101
51,7,7305,"p",1,1692,4.5,1.5,1.26956732969336,-1.74512706434954
52,7,7315,"p",1,5890,5,2.5,1.68624583790041,-0.810498343693718
53,7,7311,"q",0,1511,2,3,-0.813825211341897,-0.343183983365809
54,7,7308,"p",1,1621,4,3.5,0.852888821486308,0.124130376962101
55,7,7316,"p",1,3657,2,3,-0.813825211341897,-0.343183983365809
56,7,7312,"q",0,5765,1.5,3.5,-1.23050371954895,0.124130376962101
57,7,7306,"p",1,1249,1.5,5,-1.23050371954895,1.52607345794583
58,7,7320,"q",0,1462,2,5,-0.813825211341897,1.52607345794583
59,7,7319,"p",1,1662,4.5,3.5,1.26956732969336,0.124130376962101
60,7,7313,"p",1,1719,3.5,2.5,0.436210313279257,-0.810498343693718
61,7,7310,"p",1,1211,4,4.5,0.852888821486308,1.05875909761792
62,7,7309,"p",1,2156,3.5,3.5,0.436210313279257,0.124130376962101
63,7,7318,"p",1,1883,5,1.5,1.68624583790041,-1.74512706434954
64,7,7314,"q",0,1114,1,5,-1.647182227756,1.52607345794583
1,8,7257,"q",1,3162,2,4,-0.813825211341897,0.591444737290011
2,8,7263,"q",1,2367,4,4,0.852888821486308,0.591444737290011
3,8,7269,"p",0,2013,4,3.5,0.852888821486308,0.124130376962101
4,8,7265,"p",0,1036,2.5,4.5,-0.397146703134846,1.05875909761792
5,8,7271,"q",1,3582,5,1,1.68624583790041,-2.21244142467745
6,8,7267,"q",1,2183,2.5,4,-0.397146703134846,0.591444737290011
7,8,7259,"p",0,2402,3.5,3,0.436210313279257,-0.343183983365809
8,8,7266,"p",0,1245,4.5,1.5,1.26956732969336,-1.74512706434954
9,8,7272,"p",0,780,2,4,-0.813825211341897,0.591444737290011
10,8,7262,"p",0,872,1,5,-1.647182227756,1.52607345794583
11,8,7270,"p",0,829,1.5,4.5,-1.23050371954895,1.05875909761792
12,8,7268,"p",0,1293,3.5,4,0.436210313279257,0.591444737290011
13,8,7261,"q",1,1130,2.5,5,-0.397146703134846,1.52607345794583
14,8,7260,"p",0,1062,3.5,1.5,0.436210313279257,-1.74512706434954
15,8,7264,"q",1,1022,2,4,-0.813825211341897,0.591444737290011
16,8,7258,"q",1,2092,4.5,1.5,1.26956732969336,-1.74512706434954
17,8,7276,"p",0,2299,3,2.5,0.0195318050722055,-0.810498343693718
18,8,7284,"q",1,1157,4.5,4,1.26956732969336,0.591444737290011
19,8,7273,"q",1,1708,2,4,-0.813825211341897,0.591444737290011
20,8,7281,"p",0,999,1.5,3,-1.23050371954895,-0.343183983365809
21,8,7278,"p",0,1586,2,4,-0.813825211341897,0.591444737290011
22,8,7285,"q",1,1117,3,4,0.0195318050722055,0.591444737290011
23,8,7275,"q",1,1635,4.5,3,1.26956732969336,-0.343183983365809
24,8,7280,"p",0,1381,4.5,2,1.26956732969336,-1.27781270402163
25,8,7287,"q",1,875,4,2,0.852888821486308,-1.27781270402163
26,8,7279,"p",0,1980,3,4,0.0195318050722055,0.591444737290011
27,8,7277,"q",1,877,1,5,-1.647182227756,1.52607345794583
28,8,7283,"q",1,1736,4,3.5,0.852888821486308,0.124130376962101
29,8,7282,"p",0,1568,4.5,2,1.26956732969336,-1.27781270402163
30,8,7274,"p",0,1018,2,4,-0.813825211341897,0.591444737290011
31,8,7288,"q",1,928,2,3,-0.813825211341897,-0.343183983365809
32,8,7286,"p",0,811,2,4,-0.813825211341897,0.591444737290011
33,8,7297,"q",1,1379,4,3.5,0.852888821486308,0.124130376962101
34,8,7293,"p",0,1158,4,3.5,0.852888821486308,0.124130376962101
35,8,7302,"p",0,1073,2,4,-0.813825211341897,0.591444737290011
36,8,7301,"p",0,5965,3.5,3.5,0.436210313279257,0.124130376962101
37,8,7300,"p",0,1115,1.5,4,-1.23050371954895,0.591444737290011
38,8,7303,"q",1,952,3.5,4,0.436210313279257,0.591444737290011
39,8,7290,"q",1,1083,2,4,-0.813825211341897,0.591444737290011
40,8,7298,"q",1,868,2,4,-0.813825211341897,0.591444737290011
41,8,7289,"q",1,981,3,2.5,0.0195318050722055,-0.810498343693718
42,8,7299,"q",1,1050,4.5,2,1.26956732969336,-1.27781270402163
43,8,7294,"q",1,1320,2,3.5,-0.813825211341897,0.124130376962101
44,8,7295,"q",1,1364,4,2.5,0.852888821486308,-0.810498343693718
45,8,7292,"p",0,660,1.5,3.5,-1.23050371954895,0.124130376962101
46,8,7296,"q",1,952,3,1.5,0.0195318050722055,-1.74512706434954
47,8,7291,"p",0,1355,4.5,1.5,1.26956732969336,-1.74512706434954
48,8,7304,"p",0,926,2,3,-0.813825211341897,-0.343183983365809
49,8,7318,"p",0,1360,5,1.5,1.68624583790041,-1.74512706434954
50,8,7316,"p",0,869,2,3,-0.813825211341897,-0.343183983365809
51,8,7308,"q",1,1024,4,3.5,0.852888821486308,0.124130376962101
52,8,7312,"p",0,1244,1.5,3.5,-1.23050371954895,0.124130376962101
53,8,7311,"p",0,697,2,3,-0.813825211341897,-0.343183983365809
54,8,7307,"q",1,1495,1.5,3.5,-1.23050371954895,0.124130376962101
55,8,7313,"q",1,1084,3.5,2.5,0.436210313279257,-0.810498343693718
56,8,7317,"q",1,927,2,5,-0.813825211341897,1.52607345794583
57,8,7305,"q",1,1115,4.5,1.5,1.26956732969336,-1.74512706434954
58,8,7306,"p",0,952,1.5,5,-1.23050371954895,1.52607345794583
59,8,7310,"p",0,1460,4,4.5,0.852888821486308,1.05875909761792
60,8,7309,"q",1,1018,3.5,3.5,0.436210313279257,0.124130376962101
61,8,7320,"q",1,1161,2,5,-0.813825211341897,1.52607345794583
62,8,7319,"p",0,1114,4.5,3.5,1.26956732969336,0.124130376962101
63,8,7314,"p",0,1606,1,5,-1.647182227756,1.52607345794583
64,8,7315,"p",0,976,5,2.5,1.68624583790041,-0.810498343693718
1,9,7258,"q",0,2665,4.5,1.5,1.26956732969336,-1.74512706434954
2,9,7272,"p",1,1701,2,4,-0.813825211341897,0.591444737290011
3,9,7265,"p",1,8714,2.5,4.5,-0.397146703134846,1.05875909761792
4,9,7261,"q",0,4050,2.5,5,-0.397146703134846,1.52607345794583
5,9,7264,"q",0,1415,2,4,-0.813825211341897,0.591444737290011
6,9,7269,"p",1,2284,4,3.5,0.852888821486308,0.124130376962101
7,9,7260,"q",0,1163,3.5,1.5,0.436210313279257,-1.74512706434954
8,9,7259,"p",1,2619,3.5,3,0.436210313279257,-0.343183983365809
9,9,7266,"p",1,2946,4.5,1.5,1.26956732969336,-1.74512706434954
10,9,7268,"p",1,1903,3.5,4,0.436210313279257,0.591444737290011
11,9,7270,"q",0,1693,1.5,4.5,-1.23050371954895,1.05875909761792
12,9,7271,"q",0,2603,5,1,1.68624583790041,-2.21244142467745
13,9,7267,"p",1,1287,2.5,4,-0.397146703134846,0.591444737290011
14,9,7257,"p",1,1946,2,4,-0.813825211341897,0.591444737290011
15,9,7262,"q",0,1992,1,5,-1.647182227756,1.52607345794583
16,9,7263,"p",1,2815,4,4,0.852888821486308,0.591444737290011
17,9,7288,"p",1,1898,2,3,-0.813825211341897,-0.343183983365809
18,9,7282,"q",0,1566,4.5,2,1.26956732969336,-1.27781270402163
19,9,7281,"p",1,2467,1.5,3,-1.23050371954895,-0.343183983365809
20,9,7279,"p",1,2598,3,4,0.0195318050722055,0.591444737290011
21,9,7274,"p",1,928,2,4,-0.813825211341897,0.591444737290011
22,9,7275,"p",1,2073,4.5,3,1.26956732969336,-0.343183983365809
23,9,7280,"p",1,3036,4.5,2,1.26956732969336,-1.27781270402163
24,9,7287,"q",0,1878,4,2,0.852888821486308,-1.27781270402163
25,9,7278,"q",0,1880,2,4,-0.813825211341897,0.591444737290011
26,9,7277,"q",0,1687,1,5,-1.647182227756,1.52607345794583
27,9,7284,"p",1,1842,4.5,4,1.26956732969336,0.591444737290011
28,9,7285,"p",1,1538,3,4,0.0195318050722055,0.591444737290011
29,9,7283,"p",1,2058,4,3.5,0.852888821486308,0.124130376962101
30,9,7273,"p",1,1597,2,4,-0.813825211341897,0.591444737290011
31,9,7286,"p",1,1541,2,4,-0.813825211341897,0.591444737290011
32,9,7276,"p",1,1659,3,2.5,0.0195318050722055,-0.810498343693718
33,9,7292,"q",0,1945,1.5,3.5,-1.23050371954895,0.124130376962101
34,9,7289,"p",1,1186,3,2.5,0.0195318050722055,-0.810498343693718
35,9,7295,"p",1,1632,4,2.5,0.852888821486308,-0.810498343693718
36,9,7297,"p",1,2362,4,3.5,0.852888821486308,0.124130376962101
37,9,7299,"p",1,1232,4.5,2,1.26956732969336,-1.27781270402163
38,9,7294,"q",0,2115,2,3.5,-0.813825211341897,0.124130376962101
39,9,7290,"p",1,1003,2,4,-0.813825211341897,0.591444737290011
40,9,7302,"p",1,1494,2,4,-0.813825211341897,0.591444737290011
41,9,7293,"p",1,1053,4,3.5,0.852888821486308,0.124130376962101
42,9,7298,"q",0,2688,2,4,-0.813825211341897,0.591444737290011
43,9,7296,"p",1,1277,3,1.5,0.0195318050722055,-1.74512706434954
44,9,7304,"q",0,5911,2,3,-0.813825211341897,-0.343183983365809
45,9,7300,"p",1,4278,1.5,4,-1.23050371954895,0.591444737290011
46,9,7303,"p",1,3273,3.5,4,0.436210313279257,0.591444737290011
47,9,7291,"p",1,1752,4.5,1.5,1.26956732969336,-1.74512706434954
48,9,7301,"p",1,1332,3.5,3.5,0.436210313279257,0.124130376962101
49,9,7309,"p",1,3093,3.5,3.5,0.436210313279257,0.124130376962101
50,9,7305,"p",1,1603,4.5,1.5,1.26956732969336,-1.74512706434954
51,9,7308,"p",1,1765,4,3.5,0.852888821486308,0.124130376962101
52,9,7320,"p",1,955,2,5,-0.813825211341897,1.52607345794583
53,9,7315,"q",0,1051,5,2.5,1.68624583790041,-0.810498343693718
54,9,7314,"p",1,1193,1,5,-1.647182227756,1.52607345794583
55,9,7311,"p",1,3950,2,3,-0.813825211341897,-0.343183983365809
56,9,7312,"q",0,1725,1.5,3.5,-1.23050371954895,0.124130376962101
57,9,7306,"p",1,1395,1.5,5,-1.23050371954895,1.52607345794583
58,9,7316,"q",0,2931,2,3,-0.813825211341897,-0.343183983365809
59,9,7307,"q",0,2760,1.5,3.5,-1.23050371954895,0.124130376962101
60,9,7313,"p",1,1468,3.5,2.5,0.436210313279257,-0.810498343693718
61,9,7317,"p",1,1051,2,5,-0.813825211341897,1.52607345794583
62,9,7310,"p",1,3251,4,4.5,0.852888821486308,1.05875909761792
63,9,7318,"p",1,1526,5,1.5,1.68624583790041,-1.74512706434954
64,9,7319,"p",1,1881,4.5,3.5,1.26956732969336,0.124130376962101
1,10,7261,"q",1,3181,2.5,5,-0.397146703134846,1.52607345794583
2,10,7271,"q",1,1699,5,1,1.68624583790041,-2.21244142467745
3,10,7264,"p",0,1786,2,4,-0.813825211341897,0.591444737290011
4,10,7272,"p",0,2306,2,4,-0.813825211341897,0.591444737290011
5,10,7269,"q",1,1451,4,3.5,0.852888821486308,0.124130376962101
6,10,7266,"q",1,2659,4.5,1.5,1.26956732969336,-1.74512706434954
7,10,7265,"p",0,1221,2.5,4.5,-0.397146703134846,1.05875909761792
8,10,7258,"q",1,2754,4.5,1.5,1.26956732969336,-1.74512706434954
9,10,7267,"p",0,3049,2.5,4,-0.397146703134846,0.591444737290011
10,10,7262,"p",0,1859,1,5,-1.647182227756,1.52607345794583
11,10,7268,"p",0,2603,3.5,4,0.436210313279257,0.591444737290011
12,10,7263,"q",1,1654,4,4,0.852888821486308,0.591444737290011
13,10,7260,"q",1,1803,3.5,1.5,0.436210313279257,-1.74512706434954
14,10,7257,"q",1,3370,2,4,-0.813825211341897,0.591444737290011
15,10,7270,"p",0,1763,1.5,4.5,-1.23050371954895,1.05875909761792
16,10,7274,"p",0,3388,2,4,-0.813825211341897,0.591444737290011
17,10,7275,"q",1,1385,4.5,3,1.26956732969336,-0.343183983365809
18,10,7285,"q",1,1556,3,4,0.0195318050722055,0.591444737290011
19,10,7281,"p",0,1814,1.5,3,-1.23050371954895,-0.343183983365809
20,10,7279,"q",1,1814,3,4,0.0195318050722055,0.591444737290011
21,10,7280,"q",1,2912,4.5,2,1.26956732969336,-1.27781270402163
22,10,7283,"q",1,2122,4,3.5,0.852888821486308,0.124130376962101
23,10,7287,"q",1,1954,4,2,0.852888821486308,-1.27781270402163
24,10,7273,"p",0,3098,2,4,-0.813825211341897,0.591444737290011
25,10,7286,"p",0,2497,2,4,-0.813825211341897,0.591444737290011
26,10,7276,"q",1,1197,3,2.5,0.0195318050722055,-0.810498343693718
27,10,7288,"q",1,2156,2,3,-0.813825211341897,-0.343183983365809
28,10,7277,"p",0,2051,1,5,-1.647182227756,1.52607345794583
29,10,7282,"q",1,1697,4.5,2,1.26956732969336,-1.27781270402163
30,10,7278,"p",0,7369,2,4,-0.813825211341897,0.591444737290011
31,10,7284,"q",1,1467,4.5,4,1.26956732969336,0.591444737290011
32,10,7299,"q",1,2493,4.5,2,1.26956732969336,-1.27781270402163
33,10,7301,"q",1,1392,3.5,3.5,0.436210313279257,0.124130376962101
34,10,7294,"p",0,1792,2,3.5,-0.813825211341897,0.124130376962101
35,10,7298,"p",0,1450,2,4,-0.813825211341897,0.591444737290011
36,10,7297,"q",1,1312,4,3.5,0.852888821486308,0.124130376962101
37,10,7293,"q",1,2003,4,3.5,0.852888821486308,0.124130376962101
38,10,7300,"p",0,1203,1.5,4,-1.23050371954895,0.591444737290011
39,10,7302,"q",1,1170,2,4,-0.813825211341897,0.591444737290011
40,10,7303,"q",1,2167,3.5,4,0.436210313279257,0.591444737290011
41,10,7296,"q",1,921,3,1.5,0.0195318050722055,-1.74512706434954
42,10,7290,"p",0,906,2,4,-0.813825211341897,0.591444737290011
43,10,7295,"q",1,1140,4,2.5,0.852888821486308,-0.810498343693718
44,10,7292,"p",0,1024,1.5,3.5,-1.23050371954895,0.124130376962101
45,10,7291,"q",1,1021,4.5,1.5,1.26956732969336,-1.74512706434954
46,10,7289,"q",1,1168,3,2.5,0.0195318050722055,-0.810498343693718
47,10,7304,"p",0,1742,2,3,-0.813825211341897,-0.343183983365809
48,10,7305,"q",1,1469,4.5,1.5,1.26956732969336,-1.74512706434954
49,10,7306,"q",1,1184,1.5,5,-1.23050371954895,1.52607345794583
50,10,7310,"q",1,1218,4,4.5,0.852888821486308,1.05875909761792
51,10,7313,"q",1,3330,3.5,2.5,0.436210313279257,-0.810498343693718
52,10,7308,"q",1,1012,4,3.5,0.852888821486308,0.124130376962101
53,10,7316,"p",0,2087,2,3,-0.813825211341897,-0.343183983365809
54,10,7318,"q",1,2652,5,1.5,1.68624583790041,-1.74512706434954
55,10,7311,"p",0,5879,2,3,-0.813825211341897,-0.343183983365809
56,10,7314,"p",0,1327,1,5,-1.647182227756,1.52607345794583
57,10,7307,"p",0,1778,1.5,3.5,-1.23050371954895,0.124130376962101
58,10,7312,"p",0,1077,1.5,3.5,-1.23050371954895,0.124130376962101
59,10,7320,"q",1,2189,2,5,-0.813825211341897,1.52607345794583
60,10,7317,"p",0,1519,2,5,-0.813825211341897,1.52607345794583
61,10,7315,"q",1,1042,5,2.5,1.68624583790041,-0.810498343693718
62,10,7319,"q",1,4352,4.5,3.5,1.26956732969336,0.124130376962101
63,10,7309,"q",1,1441,3.5,3.5,0.436210313279257,0.124130376962101
1,11,7257,"p",1,5871,2,4,-0.813825211341897,0.591444737290011
2,11,7258,"p",1,5689,4.5,1.5,1.26956732969336,-1.74512706434954
3,11,7264,"p",1,2543,2,4,-0.813825211341897,0.591444737290011
4,11,7270,"q",0,2111,1.5,4.5,-1.23050371954895,1.05875909761792
5,11,7271,"p",1,2387,5,1,1.68624583790041,-2.21244142467745
6,11,7266,"p",1,915,4.5,1.5,1.26956732969336,-1.74512706434954
7,11,7260,"p",1,1413,3.5,1.5,0.436210313279257,-1.74512706434954
8,11,7269,"p",1,1457,4,3.5,0.852888821486308,0.124130376962101
9,11,7267,"p",1,5138,2.5,4,-0.397146703134846,0.591444737290011
10,11,7259,"p",1,3453,3.5,3,0.436210313279257,-0.343183983365809
11,11,7268,"p",1,1269,3.5,4,0.436210313279257,0.591444737290011
12,11,7265,"p",1,4643,2.5,4.5,-0.397146703134846,1.05875909761792
13,11,7272,"p",1,1724,2,4,-0.813825211341897,0.591444737290011
14,11,7261,"p",1,1609,2.5,5,-0.397146703134846,1.52607345794583
15,11,7263,"p",1,1591,4,4,0.852888821486308,0.591444737290011
16,11,7262,"q",0,1445,1,5,-1.647182227756,1.52607345794583
17,11,7281,"q",0,2256,1.5,3,-1.23050371954895,-0.343183983365809
18,11,7274,"q",0,1317,2,4,-0.813825211341897,0.591444737290011
19,11,7287,"p",1,2342,4,2,0.852888821486308,-1.27781270402163
20,11,7283,"p",1,3306,4,3.5,0.852888821486308,0.124130376962101
21,11,7288,"p",1,1579,2,3,-0.813825211341897,-0.343183983365809
22,11,7273,"p",1,6127,2,4,-0.813825211341897,0.591444737290011
23,11,7279,"p",1,3417,3,4,0.0195318050722055,0.591444737290011
24,11,7277,"p",1,1845,1,5,-1.647182227756,1.52607345794583
25,11,7285,"p",1,6828,3,4,0.0195318050722055,0.591444737290011
26,11,7278,"q",0,3186,2,4,-0.813825211341897,0.591444737290011
27,11,7284,"q",0,1706,4.5,4,1.26956732969336,0.591444737290011
28,11,7286,"p",1,1287,2,4,-0.813825211341897,0.591444737290011
29,11,7276,"p",1,1519,3,2.5,0.0195318050722055,-0.810498343693718
30,11,7280,"p",1,3120,4.5,2,1.26956732969336,-1.27781270402163
31,11,7282,"p",1,3043,4.5,2,1.26956732969336,-1.27781270402163
32,11,7275,"p",1,2594,4.5,3,1.26956732969336,-0.343183983365809
33,11,7303,"p",1,2624,3.5,4,0.436210313279257,0.591444737290011
34,11,7292,"q",0,1000,1.5,3.5,-1.23050371954895,0.124130376962101
35,11,7290,"q",0,1881,2,4,-0.813825211341897,0.591444737290011
36,11,7297,"p",1,1464,4,3.5,0.852888821486308,0.124130376962101
37,11,7295,"p",1,1755,4,2.5,0.852888821486308,-0.810498343693718
38,11,7299,"p",1,1530,4.5,2,1.26956732969336,-1.27781270402163
39,11,7294,"q",0,2194,2,3.5,-0.813825211341897,0.124130376962101
40,11,7301,"q",0,6369,3.5,3.5,0.436210313279257,0.124130376962101
41,11,7291,"p",1,2874,4.5,1.5,1.26956732969336,-1.74512706434954
42,11,7300,"q",0,2253,1.5,4,-1.23050371954895,0.591444737290011
43,11,7296,"q",0,2663,3,1.5,0.0195318050722055,-1.74512706434954
44,11,7304,"q",0,1541,2,3,-0.813825211341897,-0.343183983365809
45,11,7293,"q",0,2540,4,3.5,0.852888821486308,0.124130376962101
46,11,7302,"q",0,2394,2,4,-0.813825211341897,0.591444737290011
47,11,7298,"q",0,4024,2,4,-0.813825211341897,0.591444737290011
48,11,7289,"p",1,4104,3,2.5,0.0195318050722055,-0.810498343693718
49,11,7308,"p",1,3924,4,3.5,0.852888821486308,0.124130376962101
50,11,7318,"q",0,3179,5,1.5,1.68624583790041,-1.74512706434954
51,11,7314,"q",0,6320,1,5,-1.647182227756,1.52607345794583
52,11,7313,"p",1,1244,3.5,2.5,0.436210313279257,-0.810498343693718
53,11,7306,"p",1,1766,1.5,5,-1.23050371954895,1.52607345794583
54,11,7312,"q",0,1245,1.5,3.5,-1.23050371954895,0.124130376962101
55,11,7307,"q",0,2357,1.5,3.5,-1.23050371954895,0.124130376962101
56,11,7310,"p",1,1192,4,4.5,0.852888821486308,1.05875909761792
57,11,7320,"p",1,933,2,5,-0.813825211341897,1.52607345794583
58,11,7315,"q",0,2014,5,2.5,1.68624583790041,-0.810498343693718
59,11,7305,"p",1,2544,4.5,1.5,1.26956732969336,-1.74512706434954
60,11,7317,"p",1,2652,2,5,-0.813825211341897,1.52607345794583
61,11,7309,"p",1,1745,3.5,3.5,0.436210313279257,0.124130376962101
62,11,7316,"q",0,870,2,3,-0.813825211341897,-0.343183983365809
63,11,7311,"q",0,2807,2,3,-0.813825211341897,-0.343183983365809
1,12,7269,"q",1,4335,4,3.5,0.852888821486308,0.124130376962101
2,12,7259,"q",1,2606,3.5,3,0.436210313279257,-0.343183983365809
3,12,7263,"q",1,3227,4,4,0.852888821486308,0.591444737290011
4,12,7257,"q",1,2546,2,4,-0.813825211341897,0.591444737290011
5,12,7258,"p",0,1305,4.5,1.5,1.26956732969336,-1.74512706434954
6,12,7268,"q",1,1445,3.5,4,0.436210313279257,0.591444737290011
7,12,7260,"q",1,1355,3.5,1.5,0.436210313279257,-1.74512706434954
8,12,7271,"q",1,1172,5,1,1.68624583790041,-2.21244142467745
9,12,7270,"p",0,1381,1.5,4.5,-1.23050371954895,1.05875909761792
10,12,7266,"p",0,1884,4.5,1.5,1.26956732969336,-1.74512706434954
11,12,7272,"q",1,1561,2,4,-0.813825211341897,0.591444737290011
12,12,7264,"q",1,662,2,4,-0.813825211341897,0.591444737290011
13,12,7265,"p",0,529,2.5,4.5,-0.397146703134846,1.05875909761792
14,12,7261,"q",1,805,2.5,5,-0.397146703134846,1.52607345794583
15,12,7267,"q",1,1185,2.5,4,-0.397146703134846,0.591444737290011
16,12,7262,"q",1,753,1,5,-1.647182227756,1.52607345794583
17,12,7283,"p",0,149,4,3.5,0.852888821486308,0.124130376962101
18,12,7276,"p",0,2428,3,2.5,0.0195318050722055,-0.810498343693718
19,12,7280,"q",1,1381,4.5,2,1.26956732969336,-1.27781270402163
20,12,7278,"q",1,1017,2,4,-0.813825211341897,0.591444737290011
21,12,7279,"q",1,3157,3,4,0.0195318050722055,0.591444737290011
22,12,7285,"q",1,1023,3,4,0.0195318050722055,0.591444737290011
23,12,7281,"q",1,1650,1.5,3,-1.23050371954895,-0.343183983365809
24,12,7282,"p",0,989,4.5,2,1.26956732969336,-1.27781270402163
25,12,7287,"p",0,784,4,2,0.852888821486308,-1.27781270402163
26,12,7286,"p",0,722,2,4,-0.813825211341897,0.591444737290011
27,12,7288,"q",1,821,2,3,-0.813825211341897,-0.343183983365809
28,12,7275,"q",1,982,4.5,3,1.26956732969336,-0.343183983365809
29,12,7277,"p",0,556,1,5,-1.647182227756,1.52607345794583
30,12,7284,"q",1,768,4.5,4,1.26956732969336,0.591444737290011
31,12,7273,"q",1,1525,2,4,-0.813825211341897,0.591444737290011
32,12,7274,"q",1,1005,2,4,-0.813825211341897,0.591444737290011
33,12,7294,"q",1,1033,2,3.5,-0.813825211341897,0.124130376962101
34,12,7304,"q",1,2173,2,3,-0.813825211341897,-0.343183983365809
35,12,7292,"p",0,1035,1.5,3.5,-1.23050371954895,0.124130376962101
36,12,7297,"q",1,1006,4,3.5,0.852888821486308,0.124130376962101
37,12,7295,"p",0,992,4,2.5,0.852888821486308,-0.810498343693718
38,12,7291,"q",1,733,4.5,1.5,1.26956732969336,-1.74512706434954
39,12,7302,"q",1,985,2,4,-0.813825211341897,0.591444737290011
40,12,7290,"q",1,931,2,4,-0.813825211341897,0.591444737290011
41,12,7299,"p",0,720,4.5,2,1.26956732969336,-1.27781270402163
42,12,7303,"q",1,736,3.5,4,0.436210313279257,0.591444737290011
43,12,7296,"q",1,748,3,1.5,0.0195318050722055,-1.74512706434954
44,12,7301,"q",1,475,3.5,3.5,0.436210313279257,0.124130376962101
45,12,7300,"p",0,1304,1.5,4,-1.23050371954895,0.591444737290011
46,12,7289,"p",0,1018,3,2.5,0.0195318050722055,-0.810498343693718
47,12,7293,"q",1,837,4,3.5,0.852888821486308,0.124130376962101
48,12,7298,"q",1,805,2,4,-0.813825211341897,0.591444737290011
49,12,7315,"p",0,723,5,2.5,1.68624583790041,-0.810498343693718
50,12,7318,"q",1,757,5,1.5,1.68624583790041,-1.74512706434954
51,12,7319,"q",1,955,4.5,3.5,1.26956732969336,0.124130376962101
52,12,7316,"p",0,1046,2,3,-0.813825211341897,-0.343183983365809
53,12,7311,"q",1,560,2,3,-0.813825211341897,-0.343183983365809
54,12,7320,"q",1,440,2,5,-0.813825211341897,1.52607345794583
55,12,7306,"q",1,475,1.5,5,-1.23050371954895,1.52607345794583
56,12,7309,"p",0,576,3.5,3.5,0.436210313279257,0.124130376962101
57,12,7307,"q",1,429,1.5,3.5,-1.23050371954895,0.124130376962101
58,12,7312,"q",1,1159,1.5,3.5,-1.23050371954895,0.124130376962101
59,12,7310,"p",0,696,4,4.5,0.852888821486308,1.05875909761792
60,12,7305,"p",0,291,4.5,1.5,1.26956732969336,-1.74512706434954
61,12,7313,"p",0,621,3.5,2.5,0.436210313279257,-0.810498343693718
62,12,7308,"q",1,294,4,3.5,0.852888821486308,0.124130376962101
63,12,7314,"p",0,311,1,5,-1.647182227756,1.52607345794583
64,12,7317,"q",1,95,2,5,-0.813825211341897,1.52607345794583
1,13,7263,"p",1,2094,4,4,0.852888821486308,0.591444737290011
2,13,7264,"q",0,3434,2,4,-0.813825211341897,0.591444737290011
3,13,7265,"q",0,1500,2.5,4.5,-0.397146703134846,1.05875909761792
4,13,7262,"q",0,1140,1,5,-1.647182227756,1.52607345794583
5,13,7271,"p",1,1190,5,1,1.68624583790041,-2.21244142467745
6,13,7269,"p",1,1302,4,3.5,0.852888821486308,0.124130376962101
7,13,7268,"q",0,2470,3.5,4,0.436210313279257,0.591444737290011
8,13,7272,"q",0,2039,2,4,-0.813825211341897,0.591444737290011
9,13,7266,"p",1,1867,4.5,1.5,1.26956732969336,-1.74512706434954
10,13,7261,"p",1,1342,2.5,5,-0.397146703134846,1.52607345794583
11,13,7257,"q",0,1811,2,4,-0.813825211341897,0.591444737290011
12,13,7267,"q",0,2068,2.5,4,-0.397146703134846,0.591444737290011
13,13,7260,"p",1,1152,3.5,1.5,0.436210313279257,-1.74512706434954
14,13,7259,"p",1,1805,3.5,3,0.436210313279257,-0.343183983365809
15,13,7270,"p",1,1967,1.5,4.5,-1.23050371954895,1.05875909761792
16,13,7258,"p",1,1350,4.5,1.5,1.26956732969336,-1.74512706434954
17,13,7280,"p",1,1855,4.5,2,1.26956732969336,-1.27781270402163
18,13,7279,"q",0,1789,3,4,0.0195318050722055,0.591444737290011
19,13,7288,"q",0,2055,2,3,-0.813825211341897,-0.343183983365809
20,13,7273,"q",0,2396,2,4,-0.813825211341897,0.591444737290011
21,13,7281,"q",0,1815,1.5,3,-1.23050371954895,-0.343183983365809
22,13,7275,"p",1,1428,4.5,3,1.26956732969336,-0.343183983365809
23,13,7276,"p",1,1144,3,2.5,0.0195318050722055,-0.810498343693718
24,13,7285,"p",1,1650,3,4,0.0195318050722055,0.591444737290011
25,13,7283,"q",0,2412,4,3.5,0.852888821486308,0.124130376962101
26,13,7278,"q",0,3443,2,4,-0.813825211341897,0.591444737290011
27,13,7287,"p",1,1595,4,2,0.852888821486308,-1.27781270402163
28,13,7274,"q",0,1246,2,4,-0.813825211341897,0.591444737290011
29,13,7284,"p",1,1733,4.5,4,1.26956732969336,0.591444737290011
30,13,7286,"q",0,1273,2,4,-0.813825211341897,0.591444737290011
31,13,7282,"p",1,875,4.5,2,1.26956732969336,-1.27781270402163
32,13,7277,"q",0,994,1,5,-1.647182227756,1.52607345794583
33,13,7303,"q",0,1444,3.5,4,0.436210313279257,0.591444737290011
34,13,7296,"q",0,1135,3,1.5,0.0195318050722055,-1.74512706434954
35,13,7299,"q",0,2020,4.5,2,1.26956732969336,-1.27781270402163
36,13,7294,"q",0,1461,2,3.5,-0.813825211341897,0.124130376962101
37,13,7297,"p",1,1576,4,3.5,0.852888821486308,0.124130376962101
38,13,7295,"q",0,1199,4,2.5,0.852888821486308,-0.810498343693718
39,13,7292,"q",0,1535,1.5,3.5,-1.23050371954895,0.124130376962101
40,13,7301,"p",1,1761,3.5,3.5,0.436210313279257,0.124130376962101
41,13,7293,"q",0,1846,4,3.5,0.852888821486308,0.124130376962101
42,13,7290,"q",0,1022,2,4,-0.813825211341897,0.591444737290011
43,13,7298,"q",0,1144,2,4,-0.813825211341897,0.591444737290011
44,13,7304,"q",0,1791,2,3,-0.813825211341897,-0.343183983365809
45,13,7291,"p",1,1074,4.5,1.5,1.26956732969336,-1.74512706434954
46,13,7302,"p",1,1525,2,4,-0.813825211341897,0.591444737290011
47,13,7300,"q",0,1064,1.5,4,-1.23050371954895,0.591444737290011
48,13,7289,"p",1,1182,3,2.5,0.0195318050722055,-0.810498343693718
49,13,7315,"q",0,2926,5,2.5,1.68624583790041,-0.810498343693718
50,13,7316,"q",0,3158,2,3,-0.813825211341897,-0.343183983365809
51,13,7305,"p",1,1999,4.5,1.5,1.26956732969336,-1.74512706434954
52,13,7312,"q",0,1627,1.5,3.5,-1.23050371954895,0.124130376962101
53,13,7308,"p",1,1644,4,3.5,0.852888821486308,0.124130376962101
54,13,7309,"p",1,1626,3.5,3.5,0.436210313279257,0.124130376962101
55,13,7319,"p",1,1741,4.5,3.5,1.26956732969336,0.124130376962101
56,13,7306,"q",0,1171,1.5,5,-1.23050371954895,1.52607345794583
57,13,7307,"p",1,3095,1.5,3.5,-1.23050371954895,0.124130376962101
58,13,7310,"q",0,1919,4,4.5,0.852888821486308,1.05875909761792
59,13,7318,"p",1,2226,5,1.5,1.68624583790041,-1.74512706434954
60,13,7313,"q",0,1481,3.5,2.5,0.436210313279257,-0.810498343693718
61,13,7314,"q",0,1492,1,5,-1.647182227756,1.52607345794583
62,13,7311,"q",0,1172,2,3,-0.813825211341897,-0.343183983365809
63,13,7320,"q",0,2307,2,5,-0.813825211341897,1.52607345794583
64,13,7317,"p",1,1086,2,5,-0.813825211341897,1.52607345794583
1,14,7257,"p",0,3330,2,4,-0.813825211341897,0.591444737290011
2,14,7271,"q",1,1761,5,1,1.68624583790041,-2.21244142467745
3,14,7259,"q",1,2262,3.5,3,0.436210313279257,-0.343183983365809
4,14,7267,"p",0,2629,2.5,4,-0.397146703134846,0.591444737290011
5,14,7266,"q",1,1614,4.5,1.5,1.26956732969336,-1.74512706434954
6,14,7261,"p",0,2195,2.5,5,-0.397146703134846,1.52607345794583
7,14,7268,"p",0,1961,3.5,4,0.436210313279257,0.591444737290011
8,14,7260,"q",1,1500,3.5,1.5,0.436210313279257,-1.74512706434954
9,14,7269,"q",1,1528,4,3.5,0.852888821486308,0.124130376962101
10,14,7270,"p",0,2026,1.5,4.5,-1.23050371954895,1.05875909761792
11,14,7264,"p",0,1474,2,4,-0.813825211341897,0.591444737290011
12,14,7262,"p",0,1069,1,5,-1.647182227756,1.52607345794583
13,14,7258,"q",1,1794,4.5,1.5,1.26956732969336,-1.74512706434954
14,14,7263,"q",1,1856,4,4,0.852888821486308,0.591444737290011
15,14,7272,"p",0,1675,2,4,-0.813825211341897,0.591444737290011
16,14,7265,"p",0,1476,2.5,4.5,-0.397146703134846,1.05875909761792
17,14,7288,"p",0,1550,2,3,-0.813825211341897,-0.343183983365809
18,14,7285,"q",1,938,3,4,0.0195318050722055,0.591444737290011
19,14,7282,"q",1,1608,4.5,2,1.26956732969336,-1.27781270402163
20,14,7279,"q",1,1763,3,4,0.0195318050722055,0.591444737290011
21,14,7287,"q",1,1337,4,2,0.852888821486308,-1.27781270402163
22,14,7284,"p",0,3251,4.5,4,1.26956732969336,0.591444737290011
23,14,7286,"p",0,1086,2,4,-0.813825211341897,0.591444737290011
24,14,7280,"q",1,1478,4.5,2,1.26956732969336,-1.27781270402163
25,14,7273,"p",0,1604,2,4,-0.813825211341897,0.591444737290011
26,14,7274,"p",0,1326,2,4,-0.813825211341897,0.591444737290011
27,14,7277,"p",0,1897,1,5,-1.647182227756,1.52607345794583
28,14,7278,"p",0,2998,2,4,-0.813825211341897,0.591444737290011
29,14,7276,"p",0,1817,3,2.5,0.0195318050722055,-0.810498343693718
30,14,7275,"q",1,1043,4.5,3,1.26956732969336,-0.343183983365809
31,14,7283,"q",1,2211,4,3.5,0.852888821486308,0.124130376962101
32,14,7281,"p",0,1346,1.5,3,-1.23050371954895,-0.343183983365809
33,14,7303,"p",0,2143,3.5,4,0.436210313279257,0.591444737290011
34,14,7300,"p",0,2725,1.5,4,-1.23050371954895,0.591444737290011
35,14,7296,"p",0,1970,3,1.5,0.0195318050722055,-1.74512706434954
36,14,7298,"p",0,968,2,4,-0.813825211341897,0.591444737290011
37,14,7290,"p",0,784,2,4,-0.813825211341897,0.591444737290011
38,14,7293,"q",1,1198,4,3.5,0.852888821486308,0.124130376962101
39,14,7301,"p",0,1920,3.5,3.5,0.436210313279257,0.124130376962101
40,14,7299,"p",0,2561,4.5,2,1.26956732969336,-1.27781270402163
41,14,7304,"q",1,2299,2,3,-0.813825211341897,-0.343183983365809
42,14,7295,"q",1,1580,4,2.5,0.852888821486308,-0.810498343693718
43,14,7294,"p",0,1108,2,3.5,-0.813825211341897,0.124130376962101
44,14,7292,"p",0,1291,1.5,3.5,-1.23050371954895,0.124130376962101
45,14,7302,"p",0,1254,2,4,-0.813825211341897,0.591444737290011
46,14,7289,"p",0,1063,3,2.5,0.0195318050722055,-0.810498343693718
47,14,7291,"q",1,1211,4.5,1.5,1.26956732969336,-1.74512706434954
48,14,7297,"q",1,1494,4,3.5,0.852888821486308,0.124130376962101
49,14,7314,"p",0,1133,1,5,-1.647182227756,1.52607345794583
50,14,7312,"p",0,1477,1.5,3.5,-1.23050371954895,0.124130376962101
51,14,7313,"q",1,901,3.5,2.5,0.436210313279257,-0.810498343693718
52,14,7305,"q",1,1026,4.5,1.5,1.26956732969336,-1.74512706434954
53,14,7311,"p",0,2659,2,3,-0.813825211341897,-0.343183983365809
54,14,7318,"q",1,1773,5,1.5,1.68624583790041,-1.74512706434954
55,14,7306,"p",0,972,1.5,5,-1.23050371954895,1.52607345794583
56,14,7319,"q",1,1442,4.5,3.5,1.26956732969336,0.124130376962101
57,14,7309,"p",0,939,3.5,3.5,0.436210313279257,0.124130376962101
58,14,7315,"q",1,1264,5,2.5,1.68624583790041,-0.810498343693718
59,14,7308,"p",0,1047,4,3.5,0.852888821486308,0.124130376962101
60,14,7310,"p",0,1315,4,4.5,0.852888821486308,1.05875909761792
61,14,7320,"p",0,1012,2,5,-0.813825211341897,1.52607345794583
62,14,7316,"p",0,897,2,3,-0.813825211341897,-0.343183983365809
63,14,7307,"p",0,1453,1.5,3.5,-1.23050371954895,0.124130376962101
64,14,7317,"p",0,1109,2,5,-0.813825211341897,1.52607345794583
1,15,7265,"p",1,7856,2.5,4.5,-0.397146703134846,1.05875909761792
2,15,7267,"p",1,3815,2.5,4,-0.397146703134846,0.591444737290011
3,15,7266,"p",1,2899,4.5,1.5,1.26956732969336,-1.74512706434954
4,15,7260,"p",1,1223,3.5,1.5,0.436210313279257,-1.74512706434954
5,15,7261,"p",1,2501,2.5,5,-0.397146703134846,1.52607345794583
6,15,7264,"p",1,3087,2,4,-0.813825211341897,0.591444737290011
7,15,7268,"q",0,3294,3.5,4,0.436210313279257,0.591444737290011
8,15,7272,"q",0,2277,2,4,-0.813825211341897,0.591444737290011
9,15,7262,"q",0,1156,1,5,-1.647182227756,1.52607345794583
10,15,7269,"p",1,2657,4,3.5,0.852888821486308,0.124130376962101
11,15,7259,"p",1,1478,3.5,3,0.436210313279257,-0.343183983365809
12,15,7270,"q",0,794,1.5,4.5,-1.23050371954895,1.05875909761792
13,15,7257,"q",0,2512,2,4,-0.813825211341897,0.591444737290011
14,15,7271,"p",1,1599,5,1,1.68624583790041,-2.21244142467745
15,15,7263,"p",1,2556,4,4,0.852888821486308,0.591444737290011
16,15,7258,"p",1,1758,4.5,1.5,1.26956732969336,-1.74512706434954
17,15,7286,"q",0,4359,2,4,-0.813825211341897,0.591444737290011
18,15,7283,"p",1,2136,4,3.5,0.852888821486308,0.124130376962101
19,15,7285,"p",1,1782,3,4,0.0195318050722055,0.591444737290011
20,15,7275,"p",1,1085,4.5,3,1.26956732969336,-0.343183983365809
21,15,7276,"p",1,1818,3,2.5,0.0195318050722055,-0.810498343693718
22,15,7287,"p",1,984,4,2,0.852888821486308,-1.27781270402163
23,15,7279,"p",1,1396,3,4,0.0195318050722055,0.591444737290011
24,15,7280,"p",1,2640,4.5,2,1.26956732969336,-1.27781270402163
25,15,7282,"p",1,1569,4.5,2,1.26956732969336,-1.27781270402163
26,15,7284,"p",1,1976,4.5,4,1.26956732969336,0.591444737290011
27,15,7281,"p",1,1181,1.5,3,-1.23050371954895,-0.343183983365809
28,15,7278,"p",1,1337,2,4,-0.813825211341897,0.591444737290011
29,15,7273,"p",1,2086,2,4,-0.813825211341897,0.591444737290011
30,15,7274,"p",1,1542,2,4,-0.813825211341897,0.591444737290011
31,15,7288,"p",1,557,2,3,-0.813825211341897,-0.343183983365809
32,15,7277,"q",0,1222,1,5,-1.647182227756,1.52607345794583
33,15,7294,"q",0,2212,2,3.5,-0.813825211341897,0.124130376962101
34,15,7297,"p",1,1572,4,3.5,0.852888821486308,0.124130376962101
35,15,7304,"q",0,1688,2,3,-0.813825211341897,-0.343183983365809
36,15,7301,"p",1,4113,3.5,3.5,0.436210313279257,0.124130376962101
37,15,7298,"q",0,1894,2,4,-0.813825211341897,0.591444737290011
38,15,7291,"p",1,2247,4.5,1.5,1.26956732969336,-1.74512706434954
39,15,7290,"q",0,1187,2,4,-0.813825211341897,0.591444737290011
40,15,7296,"q",0,1212,3,1.5,0.0195318050722055,-1.74512706434954
41,15,7299,"q",0,1383,4.5,2,1.26956732969336,-1.27781270402163
42,15,7289,"p",1,1038,3,2.5,0.0195318050722055,-0.810498343693718
43,15,7292,"p",1,782,1.5,3.5,-1.23050371954895,0.124130376962101
44,15,7303,"p",1,1573,3.5,4,0.436210313279257,0.591444737290011
45,15,7302,"p",1,1541,2,4,-0.813825211341897,0.591444737290011
46,15,7300,"q",0,1428,1.5,4,-1.23050371954895,0.591444737290011
47,15,7293,"p",1,1802,4,3.5,0.852888821486308,0.124130376962101
48,15,7295,"p",1,1106,4,2.5,0.852888821486308,-0.810498343693718
49,15,7319,"p",1,1881,4.5,3.5,1.26956732969336,0.124130376962101
50,15,7306,"p",1,1571,1.5,5,-1.23050371954895,1.52607345794583
51,15,7318,"p",1,1670,5,1.5,1.68624583790041,-1.74512706434954
52,15,7310,"p",1,1328,4,4.5,0.852888821486308,1.05875909761792
53,15,7317,"p",1,986,2,5,-0.813825211341897,1.52607345794583
54,15,7305,"p",1,1601,4.5,1.5,1.26956732969336,-1.74512706434954
55,15,7316,"p",1,1477,2,3,-0.813825211341897,-0.343183983365809
56,15,7309,"p",1,767,3.5,3.5,0.436210313279257,0.124130376962101
57,15,7307,"p",1,1565,1.5,3.5,-1.23050371954895,0.124130376962101
58,15,7308,"p",1,924,4,3.5,0.852888821486308,0.124130376962101
59,15,7315,"p",1,973,5,2.5,1.68624583790041,-0.810498343693718
60,15,7313,"p",1,1063,3.5,2.5,0.436210313279257,-0.810498343693718
61,15,7320,"p",1,806,2,5,-0.813825211341897,1.52607345794583
62,15,7312,"p",1,1186,1.5,3.5,-1.23050371954895,0.124130376962101
63,15,7314,"q",0,550,1,5,-1.647182227756,1.52607345794583
64,15,7311,"q",0,2348,2,3,-0.813825211341897,-0.343183983365809
1,18,7268,"q",1,1909,3.5,4,0.436210313279257,0.591444737290011
2,18,7269,"q",1,1230,4,3.5,0.852888821486308,0.124130376962101
3,18,7263,"p",0,3237,4,4,0.852888821486308,0.591444737290011
4,18,7257,"p",0,1785,2,4,-0.813825211341897,0.591444737290011
5,18,7266,"p",0,2536,4.5,1.5,1.26956732969336,-1.74512706434954
6,18,7265,"q",1,1882,2.5,4.5,-0.397146703134846,1.05875909761792
7,18,7264,"p",0,1670,2,4,-0.813825211341897,0.591444737290011
8,18,7259,"q",1,2087,3.5,3,0.436210313279257,-0.343183983365809
9,18,7272,"q",1,894,2,4,-0.813825211341897,0.591444737290011
10,18,7267,"p",0,1307,2.5,4,-0.397146703134846,0.591444737290011
11,18,7270,"p",0,4188,1.5,4.5,-1.23050371954895,1.05875909761792
12,18,7258,"q",1,1455,4.5,1.5,1.26956732969336,-1.74512706434954
13,18,7261,"q",1,2310,2.5,5,-0.397146703134846,1.52607345794583
14,18,7262,"p",0,946,1,5,-1.647182227756,1.52607345794583
15,18,7271,"q",1,1957,5,1,1.68624583790041,-2.21244142467745
16,18,7260,"q",1,1713,3.5,1.5,0.436210313279257,-1.74512706434954
17,18,7278,"p",0,1560,2,4,-0.813825211341897,0.591444737290011
18,18,7287,"q",1,1131,4,2,0.852888821486308,-1.27781270402163
19,18,7282,"q",1,2300,4.5,2,1.26956732969336,-1.27781270402163
20,18,7279,"q",1,3745,3,4,0.0195318050722055,0.591444737290011
21,18,7284,"q",1,954,4.5,4,1.26956732969336,0.591444737290011
22,18,7280,"q",1,1855,4.5,2,1.26956732969336,-1.27781270402163
23,18,7273,"q",1,1667,2,4,-0.813825211341897,0.591444737290011
24,18,7286,"p",0,1159,2,4,-0.813825211341897,0.591444737290011
25,18,7276,"p",0,1065,3,2.5,0.0195318050722055,-0.810498343693718
26,18,7283,"q",1,2414,4,3.5,0.852888821486308,0.124130376962101
27,18,7285,"q",1,1643,3,4,0.0195318050722055,0.591444737290011
28,18,7275,"q",1,2208,4.5,3,1.26956732969336,-0.343183983365809
29,18,7274,"p",0,3613,2,4,-0.813825211341897,0.591444737290011
30,18,7288,"p",0,882,2,3,-0.813825211341897,-0.343183983365809
31,18,7281,"p",0,1396,1.5,3,-1.23050371954895,-0.343183983365809
32,18,7277,"p",0,1554,1,5,-1.647182227756,1.52607345794583
33,18,7299,"q",1,1645,4.5,2,1.26956732969336,-1.27781270402163
34,18,7297,"q",1,1178,4,3.5,0.852888821486308,0.124130376962101
35,18,7302,"q",1,1186,2,4,-0.813825211341897,0.591444737290011
36,18,7303,"q",1,1314,3.5,4,0.436210313279257,0.591444737290011
37,18,7290,"p",0,1007,2,4,-0.813825211341897,0.591444737290011
38,18,7298,"p",0,888,2,4,-0.813825211341897,0.591444737290011
39,18,7300,"p",0,940,1.5,4,-1.23050371954895,0.591444737290011
40,18,7294,"p",0,1052,2,3.5,-0.813825211341897,0.124130376962101
41,18,7295,"q",1,2446,4,2.5,0.852888821486308,-0.810498343693718
42,18,7289,"q",1,1920,3,2.5,0.0195318050722055,-0.810498343693718
43,18,7293,"q",1,4202,4,3.5,0.852888821486308,0.124130376962101
44,18,7304,"p",0,2419,2,3,-0.813825211341897,-0.343183983365809
45,18,7296,"q",1,2100,3,1.5,0.0195318050722055,-1.74512706434954
46,18,7292,"p",0,1040,1.5,3.5,-1.23050371954895,0.124130376962101
47,18,7301,"q",1,2228,3.5,3.5,0.436210313279257,0.124130376962101
48,18,7291,"p",0,3454,4.5,1.5,1.26956732969336,-1.74512706434954
49,18,7305,"q",1,1331,4.5,1.5,1.26956732969336,-1.74512706434954
50,18,7319,"q",1,2079,4.5,3.5,1.26956732969336,0.124130376962101
51,18,7315,"q",1,1583,5,2.5,1.68624583790041,-0.810498343693718
52,18,7308,"q",1,1274,4,3.5,0.852888821486308,0.124130376962101
53,18,7310,"q",1,1708,4,4.5,0.852888821486308,1.05875909761792
54,18,7309,"q",1,1344,3.5,3.5,0.436210313279257,0.124130376962101
55,18,7307,"q",1,2843,1.5,3.5,-1.23050371954895,0.124130376962101
56,18,7306,"q",1,1772,1.5,5,-1.23050371954895,1.52607345794583
57,18,7316,"q",1,1446,2,3,-0.813825211341897,-0.343183983365809
58,18,7313,"q",1,2028,3.5,2.5,0.436210313279257,-0.810498343693718
59,18,7317,"q",1,1369,2,5,-0.813825211341897,1.52607345794583
60,18,7318,"q",1,2109,5,1.5,1.68624583790041,-1.74512706434954
61,18,7314,"p",0,889,1,5,-1.647182227756,1.52607345794583
62,18,7312,"p",0,1339,1.5,3.5,-1.23050371954895,0.124130376962101
63,18,7311,"q",1,1357,2,3,-0.813825211341897,-0.343183983365809
1,19,7268,"p",1,5797,3.5,4,0.436210313279257,0.591444737290011
2,19,7265,"p",1,5584,2.5,4.5,-0.397146703134846,1.05875909761792
3,19,7262,"q",0,966,1,5,-1.647182227756,1.52607345794583
4,19,7264,"q",0,1801,2,4,-0.813825211341897,0.591444737290011
5,19,7266,"p",1,1817,4.5,1.5,1.26956732969336,-1.74512706434954
6,19,7258,"p",1,1097,4.5,1.5,1.26956732969336,-1.74512706434954
7,19,7267,"p",1,3367,2.5,4,-0.397146703134846,0.591444737290011
8,19,7261,"p",1,1350,2.5,5,-0.397146703134846,1.52607345794583
9,19,7272,"p",1,1416,2,4,-0.813825211341897,0.591444737290011
10,19,7263,"p",1,2310,4,4,0.852888821486308,0.591444737290011
11,19,7271,"p",1,1732,5,1,1.68624583790041,-2.21244142467745
12,19,7269,"p",1,1220,4,3.5,0.852888821486308,0.124130376962101
13,19,7260,"p",1,1567,3.5,1.5,0.436210313279257,-1.74512706434954
14,19,7270,"q",0,1150,1.5,4.5,-1.23050371954895,1.05875909761792
15,19,7259,"p",1,2131,3.5,3,0.436210313279257,-0.343183983365809
16,19,7257,"q",0,1772,2,4,-0.813825211341897,0.591444737290011
17,19,7281,"p",1,3340,1.5,3,-1.23050371954895,-0.343183983365809
18,19,7285,"p",1,1330,3,4,0.0195318050722055,0.591444737290011
19,19,7278,"q",0,1264,2,4,-0.813825211341897,0.591444737290011
20,19,7279,"q",0,3059,3,4,0.0195318050722055,0.591444737290011
21,19,7277,"p",1,1009,1,5,-1.647182227756,1.52607345794583
22,19,7275,"p",1,4027,4.5,3,1.26956732969336,-0.343183983365809
23,19,7273,"q",0,1571,2,4,-0.813825211341897,0.591444737290011
24,19,7286,"q",0,1038,2,4,-0.813825211341897,0.591444737290011
25,19,7282,"p",1,2388,4.5,2,1.26956732969336,-1.27781270402163
26,19,7274,"q",0,2808,2,4,-0.813825211341897,0.591444737290011
27,19,7283,"p",1,2113,4,3.5,0.852888821486308,0.124130376962101
28,19,7288,"q",0,1223,2,3,-0.813825211341897,-0.343183983365809
29,19,7287,"p",1,1629,4,2,0.852888821486308,-1.27781270402163
30,19,7280,"p",1,1384,4.5,2,1.26956732969336,-1.27781270402163
31,19,7276,"p",1,3443,3,2.5,0.0195318050722055,-0.810498343693718
32,19,7284,"p",1,2299,4.5,4,1.26956732969336,0.591444737290011
33,19,7292,"q",0,2312,1.5,3.5,-1.23050371954895,0.124130376962101
34,19,7294,"q",0,1693,2,3.5,-0.813825211341897,0.124130376962101
35,19,7291,"p",1,2681,4.5,1.5,1.26956732969336,-1.74512706434954
36,19,7304,"p",1,1949,2,3,-0.813825211341897,-0.343183983365809
37,19,7298,"q",0,1147,2,4,-0.813825211341897,0.591444737290011
38,19,7300,"q",0,1034,1.5,4,-1.23050371954895,0.591444737290011
39,19,7293,"q",0,1869,4,3.5,0.852888821486308,0.124130376962101
40,19,7295,"q",0,1410,4,2.5,0.852888821486308,-0.810498343693718
41,19,7303,"q",0,1055,3.5,4,0.436210313279257,0.591444737290011
42,19,7289,"q",0,972,3,2.5,0.0195318050722055,-0.810498343693718
43,19,7297,"p",1,1900,4,3.5,0.852888821486308,0.124130376962101
44,19,7290,"q",0,1242,2,4,-0.813825211341897,0.591444737290011
45,19,7299,"q",0,1205,4.5,2,1.26956732969336,-1.27781270402163
46,19,7296,"q",0,1091,3,1.5,0.0195318050722055,-1.74512706434954
47,19,7302,"q",0,1146,2,4,-0.813825211341897,0.591444737290011
48,19,7301,"p",1,1215,3.5,3.5,0.436210313279257,0.124130376962101
49,19,7309,"q",0,1920,3.5,3.5,0.436210313279257,0.124130376962101
50,19,7307,"q",0,1273,1.5,3.5,-1.23050371954895,0.124130376962101
51,19,7310,"q",0,1823,4,4.5,0.852888821486308,1.05875909761792
52,19,7308,"p",1,2859,4,3.5,0.852888821486308,0.124130376962101
53,19,7306,"q",0,1299,1.5,5,-1.23050371954895,1.52607345794583
54,19,7320,"q",0,786,2,5,-0.813825211341897,1.52607345794583
55,19,7311,"q",0,1199,2,3,-0.813825211341897,-0.343183983365809
56,19,7305,"p",1,1503,4.5,1.5,1.26956732969336,-1.74512706434954
57,19,7313,"p",1,2025,3.5,2.5,0.436210313279257,-0.810498343693718
58,19,7316,"q",0,1965,2,3,-0.813825211341897,-0.343183983365809
59,19,7319,"p",1,1913,4.5,3.5,1.26956732969336,0.124130376962101
60,19,7315,"q",0,1277,5,2.5,1.68624583790041,-0.810498343693718
61,19,7318,"q",0,935,5,1.5,1.68624583790041,-1.74512706434954
62,19,7317,"q",0,1354,2,5,-0.813825211341897,1.52607345794583
63,19,7314,"q",0,1052,1,5,-1.647182227756,1.52607345794583
64,19,7312,"q",0,819,1.5,3.5,-1.23050371954895,0.124130376962101
1,20,7267,"q",1,4081,2.5,4,-0.397146703134846,0.591444737290011
2,20,7270,"p",0,6186,1.5,4.5,-1.23050371954895,1.05875909761792
3,20,7272,"q",1,3501,2,4,-0.813825211341897,0.591444737290011
4,20,7259,"q",1,2705,3.5,3,0.436210313279257,-0.343183983365809
5,20,7260,"q",1,1609,3.5,1.5,0.436210313279257,-1.74512706434954
6,20,7261,"p",0,2770,2.5,5,-0.397146703134846,1.52607345794583
7,20,7266,"q",1,2465,4.5,1.5,1.26956732969336,-1.74512706434954
8,20,7265,"p",0,2276,2.5,4.5,-0.397146703134846,1.05875909761792
9,20,7258,"q",1,1836,4.5,1.5,1.26956732969336,-1.74512706434954
10,20,7269,"q",1,2542,4,3.5,0.852888821486308,0.124130376962101
11,20,7262,"p",0,1483,1,5,-1.647182227756,1.52607345794583
12,20,7257,"p",0,2165,2,4,-0.813825211341897,0.591444737290011
13,20,7268,"q",1,1876,3.5,4,0.436210313279257,0.591444737290011
14,20,7264,"q",1,2437,2,4,-0.813825211341897,0.591444737290011
15,20,7263,"q",1,1885,4,4,0.852888821486308,0.591444737290011
16,20,7271,"q",1,1155,5,1,1.68624583790041,-2.21244142467745
17,20,7277,"p",0,2475,1,5,-1.647182227756,1.52607345794583
18,20,7286,"q",1,2625,2,4,-0.813825211341897,0.591444737290011
19,20,7280,"q",1,2490,4.5,2,1.26956732969336,-1.27781270402163
20,20,7279,"p",0,4200,3,4,0.0195318050722055,0.591444737290011
21,20,7285,"q",1,2110,3,4,0.0195318050722055,0.591444737290011
22,20,7274,"p",0,1773,2,4,-0.813825211341897,0.591444737290011
23,20,7287,"q",1,1035,4,2,0.852888821486308,-1.27781270402163
24,20,7282,"q",1,1438,4.5,2,1.26956732969336,-1.27781270402163
25,20,7273,"p",0,2238,2,4,-0.813825211341897,0.591444737290011
26,20,7278,"q",1,5527,2,4,-0.813825211341897,0.591444737290011
27,20,7288,"q",1,3492,2,3,-0.813825211341897,-0.343183983365809
28,20,7284,"q",1,3800,4.5,4,1.26956732969336,0.591444737290011
29,20,7276,"q",1,2251,3,2.5,0.0195318050722055,-0.810498343693718
30,20,7283,"q",1,2246,4,3.5,0.852888821486308,0.124130376962101
31,20,7275,"q",1,1781,4.5,3,1.26956732969336,-0.343183983365809
32,20,7281,"q",1,2143,1.5,3,-1.23050371954895,-0.343183983365809
33,20,7303,"p",0,1920,3.5,4,0.436210313279257,0.591444737290011
34,20,7298,"p",0,1036,2,4,-0.813825211341897,0.591444737290011
35,20,7293,"q",1,1168,4,3.5,0.852888821486308,0.124130376962101
36,20,7289,"q",1,2048,3,2.5,0.0195318050722055,-0.810498343693718
37,20,7294,"p",0,1374,2,3.5,-0.813825211341897,0.124130376962101
38,20,7301,"q",1,1946,3.5,3.5,0.436210313279257,0.124130376962101
39,20,7304,"p",0,5741,2,3,-0.813825211341897,-0.343183983365809
40,20,7299,"q",1,1473,4.5,2,1.26956732969336,-1.27781270402163
41,20,7300,"p",0,1318,1.5,4,-1.23050371954895,0.591444737290011
42,20,7290,"p",0,993,2,4,-0.813825211341897,0.591444737290011
43,20,7296,"q",1,1579,3,1.5,0.0195318050722055,-1.74512706434954
44,20,7292,"q",1,1697,1.5,3.5,-1.23050371954895,0.124130376962101
45,20,7302,"q",1,1262,2,4,-0.813825211341897,0.591444737290011
46,20,7297,"q",1,1594,4,3.5,0.852888821486308,0.124130376962101
47,20,7295,"q",1,2862,4,2.5,0.852888821486308,-0.810498343693718
48,20,7291,"q",1,1130,4.5,1.5,1.26956732969336,-1.74512706434954
49,20,7307,"q",1,4869,1.5,3.5,-1.23050371954895,0.124130376962101
50,20,7306,"p",0,2292,1.5,5,-1.23050371954895,1.52607345794583
51,20,7315,"q",1,1923,5,2.5,1.68624583790041,-0.810498343693718
52,20,7313,"q",1,2090,3.5,2.5,0.436210313279257,-0.810498343693718
53,20,7310,"q",1,1694,4,4.5,0.852888821486308,1.05875909761792
54,20,7320,"p",0,2164,2,5,-0.813825211341897,1.52607345794583
55,20,7312,"p",0,4394,1.5,3.5,-1.23050371954895,0.124130376962101
56,20,7318,"q",1,912,5,1.5,1.68624583790041,-1.74512706434954
57,20,7308,"q",1,1964,4,3.5,0.852888821486308,0.124130376962101
58,20,7314,"p",0,1204,1,5,-1.647182227756,1.52607345794583
59,20,7305,"q",1,1254,4.5,1.5,1.26956732969336,-1.74512706434954
60,20,7311,"q",1,2813,2,3,-0.813825211341897,-0.343183983365809
61,20,7319,"q",1,1846,4.5,3.5,1.26956732969336,0.124130376962101
62,20,7317,"p",0,1062,2,5,-0.813825211341897,1.52607345794583
63,20,7316,"p",0,1882,2,3,-0.813825211341897,-0.343183983365809
1,21,7270,"p",1,51,1.5,4.5,-1.23050371954895,1.05875909761792
2,21,7269,"p",1,4678,4,3.5,0.852888821486308,0.124130376962101
3,21,7272,"q",0,1726,2,4,-0.813825211341897,0.591444737290011
4,21,7262,"q",0,1747,1,5,-1.647182227756,1.52607345794583
5,21,7258,"p",1,2163,4.5,1.5,1.26956732969336,-1.74512706434954
6,21,7271,"p",1,1084,5,1,1.68624583790041,-2.21244142467745
7,21,7257,"q",0,3766,2,4,-0.813825211341897,0.591444737290011
8,21,7267,"p",1,2396,2.5,4,-0.397146703134846,0.591444737290011
9,21,7268,"p",1,1435,3.5,4,0.436210313279257,0.591444737290011
10,21,7266,"p",1,1171,4.5,1.5,1.26956732969336,-1.74512706434954
11,21,7260,"p",1,2699,3.5,1.5,0.436210313279257,-1.74512706434954
12,21,7263,"p",1,3075,4,4,0.852888821486308,0.591444737290011
13,21,7261,"p",1,1905,2.5,5,-0.397146703134846,1.52607345794583
14,21,7259,"p",1,964,3.5,3,0.436210313279257,-0.343183983365809
15,21,7264,"p",1,1591,2,4,-0.813825211341897,0.591444737290011
16,21,7275,"p",1,2284,4.5,3,1.26956732969336,-0.343183983365809
17,21,7285,"p",1,1269,3,4,0.0195318050722055,0.591444737290011
18,21,7286,"p",1,1093,2,4,-0.813825211341897,0.591444737290011
19,21,7287,"p",1,1532,4,2,0.852888821486308,-1.27781270402163
20,21,7279,"p",1,1807,3,4,0.0195318050722055,0.591444737290011
21,21,7282,"p",1,3000,4.5,2,1.26956732969336,-1.27781270402163
22,21,7277,"p",1,1124,1,5,-1.647182227756,1.52607345794583
23,21,7273,"p",1,1946,2,4,-0.813825211341897,0.591444737290011
24,21,7281,"q",0,1941,1.5,3,-1.23050371954895,-0.343183983365809
25,21,7280,"p",1,2618,4.5,2,1.26956732969336,-1.27781270402163
26,21,7288,"p",1,1283,2,3,-0.813825211341897,-0.343183983365809
27,21,7283,"p",1,1725,4,3.5,0.852888821486308,0.124130376962101
28,21,7276,"q",0,1382,3,2.5,0.0195318050722055,-0.810498343693718
29,21,7284,"q",0,1669,4.5,4,1.26956732969336,0.591444737290011
30,21,7274,"p",1,1123,2,4,-0.813825211341897,0.591444737290011
31,21,7289,"p",1,6032,3,2.5,0.0195318050722055,-0.810498343693718
32,21,7300,"p",1,837,1.5,4,-1.23050371954895,0.591444737290011
33,21,7301,"p",1,1039,3.5,3.5,0.436210313279257,0.124130376962101
34,21,7293,"p",1,1162,4,3.5,0.852888821486308,0.124130376962101
35,21,7295,"p",1,718,4,2.5,0.852888821486308,-0.810498343693718
36,21,7303,"p",1,478,3.5,4,0.436210313279257,0.591444737290011
37,21,7302,"p",1,1303,2,4,-0.813825211341897,0.591444737290011
38,21,7292,"p",1,2674,1.5,3.5,-1.23050371954895,0.124130376962101
39,21,7297,"p",1,894,4,3.5,0.852888821486308,0.124130376962101
40,21,7291,"p",1,1405,4.5,1.5,1.26956732969336,-1.74512706434954
41,21,7299,"p",1,2366,4.5,2,1.26956732969336,-1.27781270402163
42,21,7296,"p",1,1765,3,1.5,0.0195318050722055,-1.74512706434954
43,21,7294,"p",1,1329,2,3.5,-0.813825211341897,0.124130376962101
44,21,7298,"p",1,1186,2,4,-0.813825211341897,0.591444737290011
45,21,7304,"p",1,2237,2,3,-0.813825211341897,-0.343183983365809
46,21,7290,"p",1,1769,2,4,-0.813825211341897,0.591444737290011
47,21,7320,"q",0,1966,2,5,-0.813825211341897,1.52607345794583
48,21,7311,"p",1,2080,2,3,-0.813825211341897,-0.343183983365809
49,21,7305,"p",1,1470,4.5,1.5,1.26956732969336,-1.74512706434954
50,21,7319,"p",1,1358,4.5,3.5,1.26956732969336,0.124130376962101
51,21,7306,"q",0,848,1.5,5,-1.23050371954895,1.52607345794583
52,21,7308,"q",0,922,4,3.5,0.852888821486308,0.124130376962101
53,21,7317,"q",0,1132,2,5,-0.813825211341897,1.52607345794583
54,21,7307,"p",1,2057,1.5,3.5,-1.23050371954895,0.124130376962101
55,21,7313,"p",1,3334,3.5,2.5,0.436210313279257,-0.810498343693718
56,21,7315,"p",1,2258,5,2.5,1.68624583790041,-0.810498343693718
57,21,7310,"p",1,1625,4,4.5,0.852888821486308,1.05875909761792
58,21,7318,"p",1,1326,5,1.5,1.68624583790041,-1.74512706434954
59,21,7316,"p",1,1823,2,3,-0.813825211341897,-0.343183983365809
60,21,7309,"p",1,950,3.5,3.5,0.436210313279257,0.124130376962101
61,21,7312,"q",0,1094,1.5,3.5,-1.23050371954895,0.124130376962101
62,21,7314,"q",0,1093,1,5,-1.647182227756,1.52607345794583
1,22,7260,"q",1,4582,3.5,1.5,0.436210313279257,-1.74512706434954
2,22,7272,"p",0,2788,2,4,-0.813825211341897,0.591444737290011
3,22,7262,"p",0,1127,1,5,-1.647182227756,1.52607345794583
4,22,7261,"p",0,2520,2.5,5,-0.397146703134846,1.52607345794583
5,22,7268,"q",1,2714,3.5,4,0.436210313279257,0.591444737290011
6,22,7264,"p",0,1967,2,4,-0.813825211341897,0.591444737290011
7,22,7267,"p",0,3185,2.5,4,-0.397146703134846,0.591444737290011
8,22,7266,"q",1,4954,4.5,1.5,1.26956732969336,-1.74512706434954
9,22,7269,"q",1,2178,4,3.5,0.852888821486308,0.124130376962101
10,22,7263,"p",0,2149,4,4,0.852888821486308,0.591444737290011
11,22,7259,"q",1,3266,3.5,3,0.436210313279257,-0.343183983365809
12,22,7270,"p",0,1303,1.5,4.5,-1.23050371954895,1.05875909761792
13,22,7258,"q",1,2170,4.5,1.5,1.26956732969336,-1.74512706434954
14,22,7265,"p",0,1400,2.5,4.5,-0.397146703134846,1.05875909761792
15,22,7257,"p",0,4883,2,4,-0.813825211341897,0.591444737290011
16,22,7271,"q",1,1843,5,1,1.68624583790041,-2.21244142467745
17,22,7286,"p",0,6676,2,4,-0.813825211341897,0.591444737290011
18,22,7282,"q",1,1312,4.5,2,1.26956732969336,-1.27781270402163
19,22,7280,"q",1,1540,4.5,2,1.26956732969336,-1.27781270402163
20,22,7277,"p",0,2681,1,5,-1.647182227756,1.52607345794583
21,22,7274,"p",0,2295,2,4,-0.813825211341897,0.591444737290011
22,22,7275,"q",1,1360,4.5,3,1.26956732969336,-0.343183983365809
23,22,7288,"q",1,2701,2,3,-0.813825211341897,-0.343183983365809
24,22,7276,"q",1,1622,3,2.5,0.0195318050722055,-0.810498343693718
25,22,7279,"p",0,3388,3,4,0.0195318050722055,0.591444737290011
26,22,7287,"q",1,3028,4,2,0.852888821486308,-1.27781270402163
27,22,7281,"p",0,1546,1.5,3,-1.23050371954895,-0.343183983365809
28,22,7278,"p",0,3860,2,4,-0.813825211341897,0.591444737290011
29,22,7273,"p",0,4398,2,4,-0.813825211341897,0.591444737290011
30,22,7285,"q",1,5756,3,4,0.0195318050722055,0.591444737290011
31,22,7284,"q",1,2194,4.5,4,1.26956732969336,0.591444737290011
32,22,7283,"q",1,1883,4,3.5,0.852888821486308,0.124130376962101
33,22,7304,"p",0,1542,2,3,-0.813825211341897,-0.343183983365809
34,22,7300,"p",0,986,1.5,4,-1.23050371954895,0.591444737290011
35,22,7298,"p",0,794,2,4,-0.813825211341897,0.591444737290011
36,22,7290,"p",0,903,2,4,-0.813825211341897,0.591444737290011
37,22,7296,"p",0,1767,3,1.5,0.0195318050722055,-1.74512706434954
38,22,7299,"q",1,2571,4.5,2,1.26956732969336,-1.27781270402163
39,22,7302,"p",0,2133,2,4,-0.813825211341897,0.591444737290011
40,22,7303,"p",0,1988,3.5,4,0.436210313279257,0.591444737290011
41,22,7301,"p",0,3722,3.5,3.5,0.436210313279257,0.124130376962101
42,22,7291,"q",1,7209,4.5,1.5,1.26956732969336,-1.74512706434954
43,22,7292,"p",0,2475,1.5,3.5,-1.23050371954895,0.124130376962101
44,22,7294,"p",0,1565,2,3.5,-0.813825211341897,0.124130376962101
45,22,7289,"p",0,1811,3,2.5,0.0195318050722055,-0.810498343693718
46,22,7297,"q",1,2387,4,3.5,0.852888821486308,0.124130376962101
47,22,7293,"p",0,1404,4,3.5,0.852888821486308,0.124130376962101
48,22,7295,"p",0,2502,4,2.5,0.852888821486308,-0.810498343693718
49,22,7308,"q",1,3971,4,3.5,0.852888821486308,0.124130376962101
50,22,7320,"p",0,1688,2,5,-0.813825211341897,1.52607345794583
51,22,7306,"p",0,1139,1.5,5,-1.23050371954895,1.52607345794583
52,22,7319,"q",1,1779,4.5,3.5,1.26956732969336,0.124130376962101
53,22,7310,"p",0,7146,4,4.5,0.852888821486308,1.05875909761792
54,22,7315,"q",1,1522,5,2.5,1.68624583790041,-0.810498343693718
55,22,7316,"p",0,1377,2,3,-0.813825211341897,-0.343183983365809
56,22,7311,"p",0,1124,2,3,-0.813825211341897,-0.343183983365809
57,22,7307,"q",1,2010,1.5,3.5,-1.23050371954895,0.124130376962101
58,22,7309,"q",1,1921,3.5,3.5,0.436210313279257,0.124130376962101
59,22,7305,"q",1,1972,4.5,1.5,1.26956732969336,-1.74512706434954
60,22,7318,"q",1,4879,5,1.5,1.68624583790041,-1.74512706434954
61,22,7313,"q",1,1724,3.5,2.5,0.436210313279257,-0.810498343693718
62,22,7312,"p",0,6163,1.5,3.5,-1.23050371954895,0.124130376962101
63,22,7314,"p",0,2124,1,5,-1.647182227756,1.52607345794583
64,22,7317,"p",0,866,2,5,-0.813825211341897,1.52607345794583
1,23,7266,"p",1,5944,4.5,1.5,1.26956732969336,-1.74512706434954
2,23,7258,"p",1,3670,4.5,1.5,1.26956732969336,-1.74512706434954
3,23,7272,"q",0,1336,2,4,-0.813825211341897,0.591444737290011
4,23,7267,"q",0,1451,2.5,4,-0.397146703134846,0.591444737290011
5,23,7268,"q",0,1373,3.5,4,0.436210313279257,0.591444737290011
6,23,7259,"q",0,3438,3.5,3,0.436210313279257,-0.343183983365809
7,23,7257,"q",0,2256,2,4,-0.813825211341897,0.591444737290011
8,23,7269,"q",0,1908,4,3.5,0.852888821486308,0.124130376962101
9,23,7263,"q",0,4069,4,4,0.852888821486308,0.591444737290011
10,23,7260,"p",1,1041,3.5,1.5,0.436210313279257,-1.74512706434954
11,23,7262,"q",0,1312,1,5,-1.647182227756,1.52607345794583
12,23,7264,"q",0,1910,2,4,-0.813825211341897,0.591444737290011
13,23,7270,"q",0,1642,1.5,4.5,-1.23050371954895,1.05875909761792
14,23,7265,"q",0,1891,2.5,4.5,-0.397146703134846,1.05875909761792
15,23,7271,"p",1,2582,5,1,1.68624583790041,-2.21244142467745
16,23,7261,"p",1,1351,2.5,5,-0.397146703134846,1.52607345794583
17,23,7285,"p",1,1702,3,4,0.0195318050722055,0.591444737290011
18,23,7274,"q",0,1014,2,4,-0.813825211341897,0.591444737290011
19,23,7281,"q",0,1921,1.5,3,-1.23050371954895,-0.343183983365809
20,23,7288,"q",0,2690,2,3,-0.813825211341897,-0.343183983365809
21,23,7286,"q",0,2496,2,4,-0.813825211341897,0.591444737290011
22,23,7282,"p",1,3007,4.5,2,1.26956732969336,-1.27781270402163
23,23,7280,"p",1,4393,4.5,2,1.26956732969336,-1.27781270402163
24,23,7276,"q",0,1234,3,2.5,0.0195318050722055,-0.810498343693718
25,23,7273,"q",0,2206,2,4,-0.813825211341897,0.591444737290011
26,23,7287,"q",0,1448,4,2,0.852888821486308,-1.27781270402163
27,23,7284,"q",0,2364,4.5,4,1.26956732969336,0.591444737290011
28,23,7279,"q",0,4683,3,4,0.0195318050722055,0.591444737290011
29,23,7277,"q",0,1677,1,5,-1.647182227756,1.52607345794583
30,23,7278,"q",0,3568,2,4,-0.813825211341897,0.591444737290011
31,23,7275,"p",1,1708,4.5,3,1.26956732969336,-0.343183983365809
32,23,7294,"q",0,1418,2,3.5,-0.813825211341897,0.124130376962101
33,23,7293,"q",0,2766,4,3.5,0.852888821486308,0.124130376962101
34,23,7302,"q",0,1204,2,4,-0.813825211341897,0.591444737290011
35,23,7298,"q",0,1024,2,4,-0.813825211341897,0.591444737290011
36,23,7292,"q",0,1890,1.5,3.5,-1.23050371954895,0.124130376962101
37,23,7303,"q",0,1398,3.5,4,0.436210313279257,0.591444737290011
38,23,7296,"q",0,1897,3,1.5,0.0195318050722055,-1.74512706434954
39,23,7291,"q",0,1659,4.5,1.5,1.26956732969336,-1.74512706434954
40,23,7300,"q",0,1430,1.5,4,-1.23050371954895,0.591444737290011
41,23,7299,"q",0,1277,4.5,2,1.26956732969336,-1.27781270402163
42,23,7295,"q",0,2188,4,2.5,0.852888821486308,-0.810498343693718
43,23,7290,"q",0,1404,2,4,-0.813825211341897,0.591444737290011
44,23,7301,"p",1,1476,3.5,3.5,0.436210313279257,0.124130376962101
45,23,7289,"q",0,2417,3,2.5,0.0195318050722055,-0.810498343693718
46,23,7297,"q",0,3603,4,3.5,0.852888821486308,0.124130376962101
47,23,7306,"q",0,1811,1.5,5,-1.23050371954895,1.52607345794583
48,23,7318,"q",0,1798,5,1.5,1.68624583790041,-1.74512706434954
49,23,7305,"p",1,1529,4.5,1.5,1.26956732969336,-1.74512706434954
50,23,7315,"q",0,1023,5,2.5,1.68624583790041,-0.810498343693718
51,23,7312,"q",0,1450,1.5,3.5,-1.23050371954895,0.124130376962101
52,23,7313,"q",0,804,3.5,2.5,0.436210313279257,-0.810498343693718
53,23,7317,"q",0,882,2,5,-0.813825211341897,1.52607345794583
54,23,7310,"q",0,1172,4,4.5,0.852888821486308,1.05875909761792
55,23,7320,"q",0,1018,2,5,-0.813825211341897,1.52607345794583
56,23,7314,"q",0,1154,1,5,-1.647182227756,1.52607345794583
57,23,7319,"p",1,1602,4.5,3.5,1.26956732969336,0.124130376962101
58,23,7308,"p",1,5887,4,3.5,0.852888821486308,0.124130376962101
59,23,7311,"q",0,1437,2,3,-0.813825211341897,-0.343183983365809
60,23,7309,"p",1,1527,3.5,3.5,0.436210313279257,0.124130376962101
61,23,7316,"q",0,1695,2,3,-0.813825211341897,-0.343183983365809
62,23,7307,"q",0,2976,1.5,3.5,-1.23050371954895,0.124130376962101
1,24,7269,"q",1,6267,4,3.5,0.852888821486308,0.124130376962101
2,24,7271,"p",0,7068,5,1,1.68624583790041,-2.21244142467745
3,24,7264,"q",1,1937,2,4,-0.813825211341897,0.591444737290011
4,24,7265,"p",0,2400,2.5,4.5,-0.397146703134846,1.05875909761792
5,24,7259,"p",0,2246,3.5,3,0.436210313279257,-0.343183983365809
6,24,7268,"q",1,3203,3.5,4,0.436210313279257,0.591444737290011
7,24,7262,"q",1,1051,1,5,-1.647182227756,1.52607345794583
8,24,7260,"p",0,5879,3.5,1.5,0.436210313279257,-1.74512706434954
9,24,7266,"p",0,2488,4.5,1.5,1.26956732969336,-1.74512706434954
10,24,7257,"q",1,2982,2,4,-0.813825211341897,0.591444737290011
11,24,7263,"p",0,4889,4,4,0.852888821486308,0.591444737290011
12,24,7261,"q",1,2544,2.5,5,-0.397146703134846,1.52607345794583
13,24,7267,"q",1,3087,2.5,4,-0.397146703134846,0.591444737290011
14,24,7258,"p",0,1420,4.5,1.5,1.26956732969336,-1.74512706434954
15,24,7270,"p",0,2769,1.5,4.5,-1.23050371954895,1.05875909761792
16,24,7272,"q",1,1712,2,4,-0.813825211341897,0.591444737290011
17,24,7287,"q",1,3312,4,2,0.852888821486308,-1.27781270402163
18,24,7285,"q",1,2245,3,4,0.0195318050722055,0.591444737290011
19,24,7280,"p",0,2202,4.5,2,1.26956732969336,-1.27781270402163
20,24,7284,"p",0,2128,4.5,4,1.26956732969336,0.591444737290011
21,24,7286,"p",0,1663,2,4,-0.813825211341897,0.591444737290011
22,24,7273,"p",0,2205,2,4,-0.813825211341897,0.591444737290011
23,24,7275,"q",1,1878,4.5,3,1.26956732969336,-0.343183983365809
24,24,7277,"p",0,1850,1,5,-1.647182227756,1.52607345794583
25,24,7276,"p",0,1996,3,2.5,0.0195318050722055,-0.810498343693718
26,24,7282,"p",0,1339,4.5,2,1.26956732969336,-1.27781270402163
27,24,7274,"q",1,1083,2,4,-0.813825211341897,0.591444737290011
28,24,7281,"p",0,2902,1.5,3,-1.23050371954895,-0.343183983365809
29,24,7288,"p",0,2832,2,3,-0.813825211341897,-0.343183983365809
30,24,7283,"q",1,4770,4,3.5,0.852888821486308,0.124130376962101
31,24,7278,"p",0,3608,2,4,-0.813825211341897,0.591444737290011
32,24,7279,"q",1,3422,3,4,0.0195318050722055,0.591444737290011
33,24,7302,"q",1,2721,2,4,-0.813825211341897,0.591444737290011
34,24,7298,"q",1,1415,2,4,-0.813825211341897,0.591444737290011
35,24,7295,"p",0,2274,4,2.5,0.852888821486308,-0.810498343693718
36,24,7303,"q",1,2320,3.5,4,0.436210313279257,0.591444737290011
37,24,7293,"q",1,1782,4,3.5,0.852888821486308,0.124130376962101
38,24,7301,"p",0,3117,3.5,3.5,0.436210313279257,0.124130376962101
39,24,7294,"p",0,2374,2,3.5,-0.813825211341897,0.124130376962101
40,24,7290,"p",0,3233,2,4,-0.813825211341897,0.591444737290011
41,24,7291,"p",0,1321,4.5,1.5,1.26956732969336,-1.74512706434954
42,24,7304,"p",0,3919,2,3,-0.813825211341897,-0.343183983365809
43,24,7289,"q",1,1590,3,2.5,0.0195318050722055,-0.810498343693718
44,24,7292,"p",0,1834,1.5,3.5,-1.23050371954895,0.124130376962101
45,24,7299,"q",1,1915,4.5,2,1.26956732969336,-1.27781270402163
46,24,7297,"p",0,8117,4,3.5,0.852888821486308,0.124130376962101
47,24,7296,"q",1,1586,3,1.5,0.0195318050722055,-1.74512706434954
48,24,7300,"q",1,1392,1.5,4,-1.23050371954895,0.591444737290011
49,24,7317,"p",0,2319,2,5,-0.813825211341897,1.52607345794583
50,24,7309,"p",0,3302,3.5,3.5,0.436210313279257,0.124130376962101
51,24,7313,"p",0,1809,3.5,2.5,0.436210313279257,-0.810498343693718
52,24,7311,"q",1,1615,2,3,-0.813825211341897,-0.343183983365809
53,24,7310,"q",1,2042,4,4.5,0.852888821486308,1.05875909761792
54,24,7312,"p",0,1494,1.5,3.5,-1.23050371954895,0.124130376962101
55,24,7318,"p",0,1326,5,1.5,1.68624583790041,-1.74512706434954
56,24,7320,"p",0,1234,2,5,-0.813825211341897,1.52607345794583
57,24,7319,"p",0,5815,4.5,3.5,1.26956732969336,0.124130376962101
58,24,7305,"q",1,1837,4.5,1.5,1.26956732969336,-1.74512706434954
59,24,7315,"p",0,1457,5,2.5,1.68624583790041,-0.810498343693718
60,24,7306,"p",0,1830,1.5,5,-1.23050371954895,1.52607345794583
61,24,7316,"q",1,2318,2,3,-0.813825211341897,-0.343183983365809
62,24,7308,"p",0,1434,4,3.5,0.852888821486308,0.124130376962101
63,24,7314,"p",0,2822,1,5,-1.647182227756,1.52607345794583
64,24,7307,"q",1,1444,1.5,3.5,-1.23050371954895,0.124130376962101
1,25,7264,"q",0,4980,2,4,-0.813825211341897,0.591444737290011
2,25,7270,"q",0,3511,1.5,4.5,-1.23050371954895,1.05875909761792
3,25,7271,"q",0,2263,5,1,1.68624583790041,-2.21244142467745
4,25,7261,"p",1,1587,2.5,5,-0.397146703134846,1.52607345794583
5,25,7259,"q",0,2388,3.5,3,0.436210313279257,-0.343183983365809
6,25,7263,"p",1,1683,4,4,0.852888821486308,0.591444737290011
7,25,7272,"p",1,1442,2,4,-0.813825211341897,0.591444737290011
8,25,7269,"q",0,2246,4,3.5,0.852888821486308,0.124130376962101
9,25,7266,"p",1,2722,4.5,1.5,1.26956732969336,-1.74512706434954
10,25,7268,"p",1,1387,3.5,4,0.436210313279257,0.591444737290011
11,25,7267,"q",0,1806,2.5,4,-0.397146703134846,0.591444737290011
12,25,7260,"q",0,2253,3.5,1.5,0.436210313279257,-1.74512706434954
13,25,7258,"q",0,1699,4.5,1.5,1.26956732969336,-1.74512706434954
14,25,7262,"q",0,3366,1,5,-1.647182227756,1.52607345794583
15,25,7257,"p",1,2165,2,4,-0.813825211341897,0.591444737290011
16,25,7265,"p",1,2049,2.5,4.5,-0.397146703134846,1.05875909761792
17,25,7276,"q",0,3670,3,2.5,0.0195318050722055,-0.810498343693718
18,25,7280,"q",0,1905,4.5,2,1.26956732969336,-1.27781270402163
19,25,7285,"p",1,1722,3,4,0.0195318050722055,0.591444737290011
20,25,7273,"p",1,1405,2,4,-0.813825211341897,0.591444737290011
21,25,7281,"q",0,1628,1.5,3,-1.23050371954895,-0.343183983365809
22,25,7284,"p",1,2789,4.5,4,1.26956732969336,0.591444737290011
23,25,7288,"p",1,2771,2,3,-0.813825211341897,-0.343183983365809
24,25,7277,"p",1,1066,1,5,-1.647182227756,1.52607345794583
25,25,7274,"p",1,1387,2,4,-0.813825211341897,0.591444737290011
26,25,7286,"q",0,1827,2,4,-0.813825211341897,0.591444737290011
27,25,7282,"p",1,1810,4.5,2,1.26956732969336,-1.27781270402163
28,25,7283,"q",0,3040,4,3.5,0.852888821486308,0.124130376962101
29,25,7278,"q",0,2009,2,4,-0.813825211341897,0.591444737290011
30,25,7287,"q",0,1557,4,2,0.852888821486308,-1.27781270402163
31,25,7275,"p",1,2553,4.5,3,1.26956732969336,-0.343183983365809
32,25,7279,"p",1,2357,3,4,0.0195318050722055,0.591444737290011
33,25,7299,"q",0,4285,4.5,2,1.26956732969336,-1.27781270402163
34,25,7293,"p",1,1729,4,3.5,0.852888821486308,0.124130376962101
35,25,7296,"p",1,1921,3,1.5,0.0195318050722055,-1.74512706434954
36,25,7294,"p",1,1949,2,3.5,-0.813825211341897,0.124130376962101
37,25,7290,"q",0,2956,2,4,-0.813825211341897,0.591444737290011
38,25,7291,"p",1,4097,4.5,1.5,1.26956732969336,-1.74512706434954
39,25,7302,"q",0,2371,2,4,-0.813825211341897,0.591444737290011
40,25,7300,"q",0,2962,1.5,4,-1.23050371954895,0.591444737290011
41,25,7298,"q",0,2282,2,4,-0.813825211341897,0.591444737290011
42,25,7304,"q",0,1909,2,3,-0.813825211341897,-0.343183983365809
43,25,7292,"q",0,1152,1.5,3.5,-1.23050371954895,0.124130376962101
44,25,7303,"p",1,2391,3.5,4,0.436210313279257,0.591444737290011
45,25,7301,"q",0,2295,3.5,3.5,0.436210313279257,0.124130376962101
46,25,7289,"p",1,3222,3,2.5,0.0195318050722055,-0.810498343693718
47,25,7295,"q",0,2138,4,2.5,0.852888821486308,-0.810498343693718
48,25,7297,"p",1,2027,4,3.5,0.852888821486308,0.124130376962101
49,25,7307,"p",1,1994,1.5,3.5,-1.23050371954895,0.124130376962101
50,25,7306,"p",1,1460,1.5,5,-1.23050371954895,1.52607345794583
51,25,7317,"p",1,1828,2,5,-0.813825211341897,1.52607345794583
52,25,7312,"q",0,1459,1.5,3.5,-1.23050371954895,0.124130376962101
53,25,7313,"p",1,1481,3.5,2.5,0.436210313279257,-0.810498343693718
54,25,7310,"p",1,1872,4,4.5,0.852888821486308,1.05875909761792
55,25,7309,"p",1,1528,3.5,3.5,0.436210313279257,0.124130376962101
56,25,7316,"q",0,1113,2,3,-0.813825211341897,-0.343183983365809
57,25,7314,"q",0,2295,1,5,-1.647182227756,1.52607345794583
58,25,7320,"q",0,1762,2,5,-0.813825211341897,1.52607345794583
59,25,7319,"p",1,1913,4.5,3.5,1.26956732969336,0.124130376962101
60,25,7318,"q",0,2251,5,1.5,1.68624583790041,-1.74512706434954
61,25,7308,"p",1,2711,4,3.5,0.852888821486308,0.124130376962101
62,25,7315,"q",0,2890,5,2.5,1.68624583790041,-0.810498343693718
63,25,7311,"q",0,1545,2,3,-0.813825211341897,-0.343183983365809
64,25,7305,"p",1,1464,4.5,1.5,1.26956732969336,-1.74512706434954
1,26,7271,"q",1,2916,5,1,1.68624583790041,-2.21244142467745
2,26,7268,"q",1,6303,3.5,4,0.436210313279257,0.591444737290011
3,26,7265,"p",0,2115,2.5,4.5,-0.397146703134846,1.05875909761792
4,26,7257,"p",0,2525,2,4,-0.813825211341897,0.591444737290011
5,26,7260,"p",0,1979,3.5,1.5,0.436210313279257,-1.74512706434954
6,26,7264,"p",0,2417,2,4,-0.813825211341897,0.591444737290011
7,26,7266,"q",1,1841,4.5,1.5,1.26956732969336,-1.74512706434954
8,26,7262,"p",0,1061,1,5,-1.647182227756,1.52607345794583
9,26,7263,"q",1,2627,4,4,0.852888821486308,0.591444737290011
10,26,7267,"q",1,2244,2.5,4,-0.397146703134846,0.591444737290011
11,26,7269,"q",1,1889,4,3.5,0.852888821486308,0.124130376962101
12,26,7261,"q",1,2080,2.5,5,-0.397146703134846,1.52607345794583
13,26,7258,"q",1,1625,4.5,1.5,1.26956732969336,-1.74512706434954
14,26,7270,"p",0,1004,1.5,4.5,-1.23050371954895,1.05875909761792
15,26,7259,"q",1,1541,3.5,3,0.436210313279257,-0.343183983365809
16,26,7272,"p",0,1182,2,4,-0.813825211341897,0.591444737290011
17,26,7286,"q",1,2765,2,4,-0.813825211341897,0.591444737290011
18,26,7282,"q",1,1998,4.5,2,1.26956732969336,-1.27781270402163
19,26,7277,"p",0,1346,1,5,-1.647182227756,1.52607345794583
20,26,7276,"q",1,1675,3,2.5,0.0195318050722055,-0.810498343693718
21,26,7279,"q",1,3076,3,4,0.0195318050722055,0.591444737290011
22,26,7287,"q",1,1934,4,2,0.852888821486308,-1.27781270402163
23,26,7283,"q",1,1966,4,3.5,0.852888821486308,0.124130376962101
24,26,7284,"q",1,1643,4.5,4,1.26956732969336,0.591444737290011
25,26,7280,"q",1,3237,4.5,2,1.26956732969336,-1.27781270402163
26,26,7281,"p",0,1655,1.5,3,-1.23050371954895,-0.343183983365809
27,26,7274,"p",0,1033,2,4,-0.813825211341897,0.591444737290011
28,26,7273,"p",0,1550,2,4,-0.813825211341897,0.591444737290011
29,26,7275,"q",1,1239,4.5,3,1.26956732969336,-0.343183983365809
30,26,7288,"p",0,1500,2,3,-0.813825211341897,-0.343183983365809
31,26,7278,"q",1,2285,2,4,-0.813825211341897,0.591444737290011
32,26,7285,"q",1,1698,3,4,0.0195318050722055,0.591444737290011
33,26,7296,"q",1,1857,3,1.5,0.0195318050722055,-1.74512706434954
34,26,7292,"p",0,1357,1.5,3.5,-1.23050371954895,0.124130376962101
35,26,7299,"q",1,1192,4.5,2,1.26956732969336,-1.27781270402163
36,26,7290,"p",0,990,2,4,-0.813825211341897,0.591444737290011
37,26,7294,"p",0,1271,2,3.5,-0.813825211341897,0.124130376962101
38,26,7289,"q",1,1261,3,2.5,0.0195318050722055,-0.810498343693718
39,26,7293,"q",1,878,4,3.5,0.852888821486308,0.124130376962101
40,26,7302,"p",0,1377,2,4,-0.813825211341897,0.591444737290011
41,26,7300,"p",0,1259,1.5,4,-1.23050371954895,0.591444737290011
42,26,7297,"q",1,1377,4,3.5,0.852888821486308,0.124130376962101
43,26,7295,"p",0,3281,4,2.5,0.852888821486308,-0.810498343693718
44,26,7304,"p",0,1307,2,3,-0.813825211341897,-0.343183983365809
45,26,7303,"p",0,1257,3.5,4,0.436210313279257,0.591444737290011
46,26,7291,"q",1,1855,4.5,1.5,1.26956732969336,-1.74512706434954
47,26,7298,"p",0,895,2,4,-0.813825211341897,0.591444737290011
48,26,7301,"q",1,2017,3.5,3.5,0.436210313279257,0.124130376962101
49,26,7314,"p",0,1096,1,5,-1.647182227756,1.52607345794583
50,26,7316,"p",0,1148,2,3,-0.813825211341897,-0.343183983365809
51,26,7320,"q",1,1021,2,5,-0.813825211341897,1.52607345794583
52,26,7309,"q",1,784,3.5,3.5,0.436210313279257,0.124130376962101
53,26,7312,"p",0,939,1.5,3.5,-1.23050371954895,0.124130376962101
54,26,7306,"q",1,1149,1.5,5,-1.23050371954895,1.52607345794583
55,26,7308,"q",1,802,4,3.5,0.852888821486308,0.124130376962101
56,26,7311,"p",0,944,2,3,-0.813825211341897,-0.343183983365809
57,26,7315,"q",1,1068,5,2.5,1.68624583790041,-0.810498343693718
58,26,7317,"q",1,1227,2,5,-0.813825211341897,1.52607345794583
59,26,7319,"q",1,2454,4.5,3.5,1.26956732969336,0.124130376962101
60,26,7307,"p",0,1706,1.5,3.5,-1.23050371954895,0.124130376962101
61,26,7310,"q",1,1021,4,4.5,0.852888821486308,1.05875909761792
62,26,7318,"q",1,1151,5,1.5,1.68624583790041,-1.74512706434954
63,26,7305,"q",1,1236,4.5,1.5,1.26956732969336,-1.74512706434954
64,26,7313,"q",1,1340,3.5,2.5,0.436210313279257,-0.810498343693718
1,27,7272,"q",0,3463,2,4,-0.813825211341897,0.591444737290011
2,27,7263,"p",1,2711,4,4,0.852888821486308,0.591444737290011
3,27,7257,"p",1,3896,2,4,-0.813825211341897,0.591444737290011
4,27,7269,"p",1,2522,4,3.5,0.852888821486308,0.124130376962101
5,27,7271,"q",0,1076,5,1,1.68624583790041,-2.21244142467745
6,27,7266,"p",1,1428,4.5,1.5,1.26956732969336,-1.74512706434954
7,27,7260,"p",1,1126,3.5,1.5,0.436210313279257,-1.74512706434954
8,27,7268,"p",1,1480,3.5,4,0.436210313279257,0.591444737290011
9,27,7264,"q",0,1609,2,4,-0.813825211341897,0.591444737290011
10,27,7261,"q",0,2308,2.5,5,-0.397146703134846,1.52607345794583
11,27,7270,"p",1,2032,1.5,4.5,-1.23050371954895,1.05875909761792
12,27,7259,"q",0,967,3.5,3,0.436210313279257,-0.343183983365809
13,27,7258,"p",1,1730,4.5,1.5,1.26956732969336,-1.74512706434954
14,27,7265,"p",1,2435,2.5,4.5,-0.397146703134846,1.05875909761792
15,27,7262,"q",0,1569,1,5,-1.647182227756,1.52607345794583
16,27,7285,"p",1,3817,3,4,0.0195318050722055,0.591444737290011
17,27,7286,"p",1,1237,2,4,-0.813825211341897,0.591444737290011
18,27,7288,"p",1,999,2,3,-0.813825211341897,-0.343183983365809
19,27,7273,"q",0,1292,2,4,-0.813825211341897,0.591444737290011
20,27,7287,"p",1,1605,4,2,0.852888821486308,-1.27781270402163
21,27,7279,"q",0,2520,3,4,0.0195318050722055,0.591444737290011
22,27,7275,"p",1,2563,4.5,3,1.26956732969336,-0.343183983365809
23,27,7283,"p",1,3799,4,3.5,0.852888821486308,0.124130376962101
24,27,7281,"p",1,865,1.5,3,-1.23050371954895,-0.343183983365809
25,27,7274,"p",1,950,2,4,-0.813825211341897,0.591444737290011
26,27,7277,"q",0,1093,1,5,-1.647182227756,1.52607345794583
27,27,7284,"q",0,2364,4.5,4,1.26956732969336,0.591444737290011
28,27,7278,"p",1,1513,2,4,-0.813825211341897,0.591444737290011
29,27,7282,"p",1,1294,4.5,2,1.26956732969336,-1.27781270402163
30,27,7276,"q",0,1064,3,2.5,0.0195318050722055,-0.810498343693718
31,27,7280,"p",1,1136,4.5,2,1.26956732969336,-1.27781270402163
32,27,7290,"p",1,1752,2,4,-0.813825211341897,0.591444737290011
33,27,7294,"q",0,2091,2,3.5,-0.813825211341897,0.124130376962101
34,27,7301,"q",0,1501,3.5,3.5,0.436210313279257,0.124130376962101
35,27,7297,"p",1,2026,4,3.5,0.852888821486308,0.124130376962101
36,27,7289,"p",1,1416,3,2.5,0.0195318050722055,-0.810498343693718
37,27,7293,"p",1,1346,4,3.5,0.852888821486308,0.124130376962101
38,27,7291,"p",1,1303,4.5,1.5,1.26956732969336,-1.74512706434954
39,27,7299,"p",1,1095,4.5,2,1.26956732969336,-1.27781270402163
40,27,7292,"p",1,779,1.5,3.5,-1.23050371954895,0.124130376962101
41,27,7298,"q",0,902,2,4,-0.813825211341897,0.591444737290011
42,27,7300,"q",0,1734,1.5,4,-1.23050371954895,0.591444737290011
43,27,7302,"q",0,1958,2,4,-0.813825211341897,0.591444737290011
44,27,7303,"q",0,1843,3.5,4,0.436210313279257,0.591444737290011
45,27,7296,"q",0,1520,3,1.5,0.0195318050722055,-1.74512706434954
46,27,7304,"q",0,2044,2,3,-0.813825211341897,-0.343183983365809
47,27,7295,"p",1,1185,4,2.5,0.852888821486308,-0.810498343693718
48,27,7305,"p",1,3042,4.5,1.5,1.26956732969336,-1.74512706434954
49,27,7318,"p",1,1400,5,1.5,1.68624583790041,-1.74512706434954
50,27,7306,"p",1,1797,1.5,5,-1.23050371954895,1.52607345794583
51,27,7315,"q",0,2309,5,2.5,1.68624583790041,-0.810498343693718
52,27,7317,"q",0,1168,2,5,-0.813825211341897,1.52607345794583
53,27,7311,"q",0,1316,2,3,-0.813825211341897,-0.343183983365809
