"trial","pers","itemid","response","creative","rt","orig.rating","util.rating","orig.rating_s","util.rating_s"
1,816,7258,"q",1,6494,4.5,1.5,1.26956732969336,-1.74512706434954
2,816,7264,"p",0,1415,2,4,-0.813825211341897,0.591444737290011
3,816,7271,"q",1,36,5,1,1.68624583790041,-2.21244142467745
4,816,7263,"p",0,364,4,4,0.852888821486308,0.591444737290011
5,816,7266,"q",1,549,4.5,1.5,1.26956732969336,-1.74512706434954
6,816,7259,"q",1,448,3.5,3,0.436210313279257,-0.343183983365809
7,816,7260,"p",0,472,3.5,1.5,0.436210313279257,-1.74512706434954
8,816,7265,"p",0,463,2.5,4.5,-0.397146703134846,1.05875909761792
9,816,7269,"p",0,444,4,3.5,0.852888821486308,0.124130376962101
10,816,7270,"p",0,384,1.5,4.5,-1.23050371954895,1.05875909761792
11,816,7257,"p",0,344,2,4,-0.813825211341897,0.591444737290011
12,816,7261,"q",1,357,2.5,5,-0.397146703134846,1.52607345794583
13,816,7268,"p",0,519,3.5,4,0.436210313279257,0.591444737290011
14,816,7275,"q",1,451,4.5,3,1.26956732969336,-0.343183983365809
15,816,7281,"q",1,550,1.5,3,-1.23050371954895,-0.343183983365809
16,816,7282,"q",1,397,4.5,2,1.26956732969336,-1.27781270402163
17,816,7276,"q",1,343,3,2.5,0.0195318050722055,-0.810498343693718
18,816,7278,"q",1,248,2,4,-0.813825211341897,0.591444737290011
19,816,7287,"q",1,366,4,2,0.852888821486308,-1.27781270402163
20,816,7273,"q",1,360,2,4,-0.813825211341897,0.591444737290011
21,816,7274,"q",1,474,2,4,-0.813825211341897,0.591444737290011
22,816,7285,"q",1,410,3,4,0.0195318050722055,0.591444737290011
23,816,7277,"q",1,359,1,5,-1.647182227756,1.52607345794583
24,816,7279,"p",0,149,3,4,0.0195318050722055,0.591444737290011
25,816,7283,"p",0,303,4,3.5,0.852888821486308,0.124130376962101
26,816,7284,"p",0,362,4.5,4,1.26956732969336,0.591444737290011
27,816,7286,"p",0,421,2,4,-0.813825211341897,0.591444737290011
28,816,7288,"p",0,315,2,3,-0.813825211341897,-0.343183983365809
29,816,7280,"p",0,340,4.5,2,1.26956732969336,-1.27781270402163
30,816,7301,"p",0,319,3.5,3.5,0.436210313279257,0.124130376962101
31,816,7289,"p",0,355,3,2.5,0.0195318050722055,-0.810498343693718
32,816,7304,"p",0,638,2,3,-0.813825211341897,-0.343183983365809
33,816,7290,"p",0,400,2,4,-0.813825211341897,0.591444737290011
34,816,7298,"p",0,412,2,4,-0.813825211341897,0.591444737290011
35,816,7303,"p",0,408,3.5,4,0.436210313279257,0.591444737290011
36,816,7293,"p",0,378,4,3.5,0.852888821486308,0.124130376962101
37,816,7299,"p",0,533,4.5,2,1.26956732969336,-1.27781270402163
38,816,7294,"p",0,424,2,3.5,-0.813825211341897,0.124130376962101
39,816,7300,"p",0,484,1.5,4,-1.23050371954895,0.591444737290011
40,816,7302,"p",0,417,2,4,-0.813825211341897,0.591444737290011
41,816,7292,"p",0,391,1.5,3.5,-1.23050371954895,0.124130376962101
42,816,7295,"p",0,385,4,2.5,0.852888821486308,-0.810498343693718
43,816,7296,"p",0,372,3,1.5,0.0195318050722055,-1.74512706434954
44,816,7291,"p",0,297,4.5,1.5,1.26956732969336,-1.74512706434954
45,816,7297,"p",0,402,4,3.5,0.852888821486308,0.124130376962101
46,816,7311,"p",0,320,2,3,-0.813825211341897,-0.343183983365809
47,816,7319,"p",0,350,4.5,3.5,1.26956732969336,0.124130376962101
48,816,7312,"p",0,576,1.5,3.5,-1.23050371954895,0.124130376962101
49,816,7320,"p",0,551,2,5,-0.813825211341897,1.52607345794583
50,816,7316,"p",0,359,2,3,-0.813825211341897,-0.343183983365809
51,816,7308,"p",0,72,4,3.5,0.852888821486308,0.124130376962101
52,816,7318,"p",0,350,5,1.5,1.68624583790041,-1.74512706434954
53,816,7306,"p",0,401,1.5,5,-1.23050371954895,1.52607345794583
54,816,7314,"p",0,356,1,5,-1.647182227756,1.52607345794583
55,816,7315,"p",0,420,5,2.5,1.68624583790041,-0.810498343693718
56,816,7310,"p",0,349,4,4.5,0.852888821486308,1.05875909761792
57,816,7307,"p",0,360,1.5,3.5,-1.23050371954895,0.124130376962101
58,816,7317,"p",0,354,2,5,-0.813825211341897,1.52607345794583
59,816,7313,"p",0,374,3.5,2.5,0.436210313279257,-0.810498343693718
60,816,7309,"p",0,317,3.5,3.5,0.436210313279257,0.124130376962101
61,816,7305,"p",0,302,4.5,1.5,1.26956732969336,-1.74512706434954
1,817,7266,"p",1,6066,4.5,1.5,1.26956732969336,-1.74512706434954
2,817,7260,"p",1,1026,3.5,1.5,0.436210313279257,-1.74512706434954
3,817,7272,"p",1,166,2,4,-0.813825211341897,0.591444737290011
4,817,7261,"p",1,148,2.5,5,-0.397146703134846,1.52607345794583
5,817,7258,"p",1,1320,4.5,1.5,1.26956732969336,-1.74512706434954
6,817,7264,"q",0,75,2,4,-0.813825211341897,0.591444737290011
7,817,7269,"q",0,226,4,3.5,0.852888821486308,0.124130376962101
8,817,7257,"q",0,238,2,4,-0.813825211341897,0.591444737290011
9,817,7263,"q",0,67,4,4,0.852888821486308,0.591444737290011
10,817,7265,"p",1,246,2.5,4.5,-0.397146703134846,1.05875909761792
11,817,7271,"q",0,89,5,1,1.68624583790041,-2.21244142467745
12,817,7268,"p",1,135,3.5,4,0.436210313279257,0.591444737290011
13,817,7262,"q",0,172,1,5,-1.647182227756,1.52607345794583
14,817,7259,"q",0,447,3.5,3,0.436210313279257,-0.343183983365809
15,817,7267,"p",1,185,2.5,4,-0.397146703134846,0.591444737290011
16,817,7270,"q",0,185,1.5,4.5,-1.23050371954895,1.05875909761792
17,817,7278,"p",1,352,2,4,-0.813825211341897,0.591444737290011
18,817,7274,"q",0,74,2,4,-0.813825211341897,0.591444737290011
19,817,7273,"p",1,47,2,4,-0.813825211341897,0.591444737290011
20,817,7279,"q",0,50,3,4,0.0195318050722055,0.591444737290011
21,817,7283,"q",0,1,4,3.5,0.852888821486308,0.124130376962101
22,817,7282,"p",1,126,4.5,2,1.26956732969336,-1.27781270402163
23,817,7276,"p",1,180,3,2.5,0.0195318050722055,-0.810498343693718
24,817,7277,"p",1,214,1,5,-1.647182227756,1.52607345794583
25,817,7287,"p",1,188,4,2,0.852888821486308,-1.27781270402163
26,817,7285,"p",1,49,3,4,0.0195318050722055,0.591444737290011
27,817,7286,"q",0,114,2,4,-0.813825211341897,0.591444737290011
28,817,7275,"q",0,91,4.5,3,1.26956732969336,-0.343183983365809
29,817,7288,"q",0,54,2,3,-0.813825211341897,-0.343183983365809
30,817,7284,"q",0,2,4.5,4,1.26956732969336,0.591444737290011
31,817,7281,"q",0,372,1.5,3,-1.23050371954895,-0.343183983365809
32,817,7280,"q",0,213,4.5,2,1.26956732969336,-1.27781270402163
33,817,7301,"q",0,90,3.5,3.5,0.436210313279257,0.124130376962101
34,817,7289,"q",0,372,3,2.5,0.0195318050722055,-0.810498343693718
35,817,7297,"p",1,284,4,3.5,0.852888821486308,0.124130376962101
36,817,7298,"q",0,203,2,4,-0.813825211341897,0.591444737290011
37,817,7299,"q",0,112,4.5,2,1.26956732969336,-1.27781270402163
38,817,7302,"q",0,7,2,4,-0.813825211341897,0.591444737290011
39,817,7300,"q",0,16,1.5,4,-1.23050371954895,0.591444737290011
40,817,7290,"q",0,281,2,4,-0.813825211341897,0.591444737290011
41,817,7293,"p",1,211,4,3.5,0.852888821486308,0.124130376962101
42,817,7303,"q",0,273,3.5,4,0.436210313279257,0.591444737290011
43,817,7294,"p",1,168,2,3.5,-0.813825211341897,0.124130376962101
44,817,7296,"p",1,233,3,1.5,0.0195318050722055,-1.74512706434954
45,817,7292,"p",1,287,1.5,3.5,-1.23050371954895,0.124130376962101
46,817,7295,"p",1,21,4,2.5,0.852888821486308,-0.810498343693718
47,817,7304,"q",0,495,2,3,-0.813825211341897,-0.343183983365809
48,817,7291,"p",1,359,4.5,1.5,1.26956732969336,-1.74512706434954
49,817,7313,"p",1,1036,3.5,2.5,0.436210313279257,-0.810498343693718
50,817,7312,"p",1,501,1.5,3.5,-1.23050371954895,0.124130376962101
51,817,7309,"q",0,603,3.5,3.5,0.436210313279257,0.124130376962101
52,817,7306,"q",0,332,1.5,5,-1.23050371954895,1.52607345794583
53,817,7308,"q",0,171,4,3.5,0.852888821486308,0.124130376962101
54,817,7316,"q",0,189,2,3,-0.813825211341897,-0.343183983365809
55,817,7310,"q",0,203,4,4.5,0.852888821486308,1.05875909761792
56,817,7319,"p",1,80,4.5,3.5,1.26956732969336,0.124130376962101
57,817,7314,"p",1,211,1,5,-1.647182227756,1.52607345794583
58,817,7320,"q",0,187,2,5,-0.813825211341897,1.52607345794583
59,817,7305,"p",1,73,4.5,1.5,1.26956732969336,-1.74512706434954
60,817,7311,"p",1,20,2,3,-0.813825211341897,-0.343183983365809
61,817,7317,"p",1,310,2,5,-0.813825211341897,1.52607345794583
62,817,7315,"p",1,450,5,2.5,1.68624583790041,-0.810498343693718
63,817,7318,"p",1,493,5,1.5,1.68624583790041,-1.74512706434954
64,817,7307,"p",1,338,1.5,3.5,-1.23050371954895,0.124130376962101
1,824,7267,"q",1,4496,2.5,4,-0.397146703134846,0.591444737290011
2,824,7271,"p",0,487,5,1,1.68624583790041,-2.21244142467745
3,824,7262,"p",0,734,1,5,-1.647182227756,1.52607345794583
4,824,7264,"q",1,2114,2,4,-0.813825211341897,0.591444737290011
5,824,7260,"q",1,1256,3.5,1.5,0.436210313279257,-1.74512706434954
6,824,7257,"p",0,2182,2,4,-0.813825211341897,0.591444737290011
7,824,7261,"q",1,1157,2.5,5,-0.397146703134846,1.52607345794583
8,824,7268,"q",1,405,3.5,4,0.436210313279257,0.591444737290011
9,824,7258,"q",1,271,4.5,1.5,1.26956732969336,-1.74512706434954
10,824,7272,"p",0,292,2,4,-0.813825211341897,0.591444737290011
11,824,7263,"q",1,259,4,4,0.852888821486308,0.591444737290011
12,824,7259,"p",0,263,3.5,3,0.436210313279257,-0.343183983365809
13,824,7269,"p",0,346,4,3.5,0.852888821486308,0.124130376962101
14,824,7266,"q",1,330,4.5,1.5,1.26956732969336,-1.74512706434954
15,824,7265,"q",1,627,2.5,4.5,-0.397146703134846,1.05875909761792
16,824,7279,"p",0,1032,3,4,0.0195318050722055,0.591444737290011
17,824,7282,"p",0,313,4.5,2,1.26956732969336,-1.27781270402163
18,824,7281,"p",0,740,1.5,3,-1.23050371954895,-0.343183983365809
19,824,7273,"q",1,168,2,4,-0.813825211341897,0.591444737290011
20,824,7275,"q",1,260,4.5,3,1.26956732969336,-0.343183983365809
21,824,7274,"q",1,769,2,4,-0.813825211341897,0.591444737290011
22,824,7277,"q",1,429,1,5,-1.647182227756,1.52607345794583
23,824,7284,"q",1,503,4.5,4,1.26956732969336,0.591444737290011
24,824,7285,"q",1,534,3,4,0.0195318050722055,0.591444737290011
25,824,7283,"p",0,660,4,3.5,0.852888821486308,0.124130376962101
26,824,7287,"p",0,263,4,2,0.852888821486308,-1.27781270402163
27,824,7276,"q",1,190,3,2.5,0.0195318050722055,-0.810498343693718
28,824,7280,"p",0,290,4.5,2,1.26956732969336,-1.27781270402163
29,824,7288,"q",1,377,2,3,-0.813825211341897,-0.343183983365809
30,824,7278,"p",0,57,2,4,-0.813825211341897,0.591444737290011
31,824,7286,"p",0,263,2,4,-0.813825211341897,0.591444737290011
32,824,7289,"q",1,254,3,2.5,0.0195318050722055,-0.810498343693718
33,824,7301,"q",1,442,3.5,3.5,0.436210313279257,0.124130376962101
34,824,7295,"p",0,410,4,2.5,0.852888821486308,-0.810498343693718
35,824,7302,"q",1,33,2,4,-0.813825211341897,0.591444737290011
36,824,7293,"p",0,245,4,3.5,0.852888821486308,0.124130376962101
37,824,7294,"p",0,946,2,3.5,-0.813825211341897,0.124130376962101
38,824,7299,"q",1,277,4.5,2,1.26956732969336,-1.27781270402163
39,824,7292,"q",1,29,1.5,3.5,-1.23050371954895,0.124130376962101
40,824,7303,"q",1,284,3.5,4,0.436210313279257,0.591444737290011
41,824,7300,"q",1,320,1.5,4,-1.23050371954895,0.591444737290011
42,824,7296,"q",1,313,3,1.5,0.0195318050722055,-1.74512706434954
43,824,7298,"q",1,479,2,4,-0.813825211341897,0.591444737290011
44,824,7290,"q",1,244,2,4,-0.813825211341897,0.591444737290011
45,824,7304,"q",1,271,2,3,-0.813825211341897,-0.343183983365809
46,824,7297,"q",1,257,4,3.5,0.852888821486308,0.124130376962101
47,824,7291,"q",1,286,4.5,1.5,1.26956732969336,-1.74512706434954
48,824,7310,"q",1,310,4,4.5,0.852888821486308,1.05875909761792
49,824,7308,"p",0,324,4,3.5,0.852888821486308,0.124130376962101
50,824,7311,"q",1,245,2,3,-0.813825211341897,-0.343183983365809
51,824,7313,"q",1,284,3.5,2.5,0.436210313279257,-0.810498343693718
52,824,7318,"p",0,249,5,1.5,1.68624583790041,-1.74512706434954
53,824,7315,"p",0,265,5,2.5,1.68624583790041,-0.810498343693718
54,824,7309,"p",0,361,3.5,3.5,0.436210313279257,0.124130376962101
55,824,7305,"q",1,190,4.5,1.5,1.26956732969336,-1.74512706434954
56,824,7312,"q",1,162,1.5,3.5,-1.23050371954895,0.124130376962101
57,824,7306,"p",0,487,1.5,5,-1.23050371954895,1.52607345794583
58,824,7320,"q",1,276,2,5,-0.813825211341897,1.52607345794583
59,824,7307,"q",1,694,1.5,3.5,-1.23050371954895,0.124130376962101
60,824,7319,"p",0,254,4.5,3.5,1.26956732969336,0.124130376962101
61,824,7317,"q",1,78,2,5,-0.813825211341897,1.52607345794583
62,824,7314,"q",1,296,1,5,-1.647182227756,1.52607345794583
63,824,7316,"q",1,258,2,3,-0.813825211341897,-0.343183983365809
1,825,7257,"p",1,2855,2,4,-0.813825211341897,0.591444737290011
2,825,7261,"q",0,1995,2.5,5,-0.397146703134846,1.52607345794583
3,825,7267,"p",1,2140,2.5,4,-0.397146703134846,0.591444737290011
4,825,7260,"q",0,1818,3.5,1.5,0.436210313279257,-1.74512706434954
5,825,7265,"q",0,1619,2.5,4.5,-0.397146703134846,1.05875909761792
6,825,7270,"q",0,1617,1.5,4.5,-1.23050371954895,1.05875909761792
7,825,7263,"p",1,1408,4,4,0.852888821486308,0.591444737290011
8,825,7271,"q",0,2361,5,1,1.68624583790041,-2.21244142467745
9,825,7269,"p",1,1327,4,3.5,0.852888821486308,0.124130376962101
10,825,7259,"p",1,1068,3.5,3,0.436210313279257,-0.343183983365809
11,825,7264,"p",1,1355,2,4,-0.813825211341897,0.591444737290011
12,825,7268,"q",0,1519,3.5,4,0.436210313279257,0.591444737290011
13,825,7272,"q",0,1567,2,4,-0.813825211341897,0.591444737290011
14,825,7258,"q",0,1388,4.5,1.5,1.26956732969336,-1.74512706434954
15,825,7262,"q",0,1039,1,5,-1.647182227756,1.52607345794583
16,825,7266,"q",0,738,4.5,1.5,1.26956732969336,-1.74512706434954
17,825,7279,"q",0,2664,3,4,0.0195318050722055,0.591444737290011
18,825,7282,"q",0,1299,4.5,2,1.26956732969336,-1.27781270402163
19,825,7277,"q",0,1227,1,5,-1.647182227756,1.52607345794583
20,825,7278,"q",0,1432,2,4,-0.813825211341897,0.591444737290011
21,825,7275,"q",0,1424,4.5,3,1.26956732969336,-0.343183983365809
22,825,7273,"q",0,1723,2,4,-0.813825211341897,0.591444737290011
23,825,7284,"q",0,1785,4.5,4,1.26956732969336,0.591444737290011
24,825,7276,"q",0,1014,3,2.5,0.0195318050722055,-0.810498343693718
25,825,7280,"q",0,920,4.5,2,1.26956732969336,-1.27781270402163
26,825,7286,"p",1,2829,2,4,-0.813825211341897,0.591444737290011
27,825,7285,"p",1,1032,3,4,0.0195318050722055,0.591444737290011
28,825,7283,"p",1,1717,4,3.5,0.852888821486308,0.124130376962101
29,825,7287,"q",0,1083,4,2,0.852888821486308,-1.27781270402163
30,825,7281,"q",0,834,1.5,3,-1.23050371954895,-0.343183983365809
31,825,7288,"q",0,2009,2,3,-0.813825211341897,-0.343183983365809
32,825,7274,"q",0,1093,2,4,-0.813825211341897,0.591444737290011
33,825,7301,"q",0,1277,3.5,3.5,0.436210313279257,0.124130376962101
34,825,7292,"q",0,1033,1.5,3.5,-1.23050371954895,0.124130376962101
35,825,7299,"q",0,637,4.5,2,1.26956732969336,-1.27781270402163
36,825,7303,"p",1,1086,3.5,4,0.436210313279257,0.591444737290011
37,825,7298,"p",1,921,2,4,-0.813825211341897,0.591444737290011
38,825,7296,"q",0,1134,3,1.5,0.0195318050722055,-1.74512706434954
39,825,7294,"q",0,1315,2,3.5,-0.813825211341897,0.124130376962101
40,825,7302,"q",0,1088,2,4,-0.813825211341897,0.591444737290011
41,825,7291,"q",0,933,4.5,1.5,1.26956732969336,-1.74512706434954
42,825,7290,"q",0,627,2,4,-0.813825211341897,0.591444737290011
43,825,7297,"q",0,1274,4,3.5,0.852888821486308,0.124130376962101
44,825,7289,"q",0,1318,3,2.5,0.0195318050722055,-0.810498343693718
45,825,7304,"q",0,1077,2,3,-0.813825211341897,-0.343183983365809
46,825,7300,"q",0,617,1.5,4,-1.23050371954895,0.591444737290011
47,825,7293,"q",0,760,4,3.5,0.852888821486308,0.124130376962101
48,825,7295,"q",0,1659,4,2.5,0.852888821486308,-0.810498343693718
49,825,7310,"q",0,1375,4,4.5,0.852888821486308,1.05875909761792
50,825,7314,"q",0,1244,1,5,-1.647182227756,1.52607345794583
51,825,7315,"q",0,933,5,2.5,1.68624583790041,-0.810498343693718
52,825,7307,"q",0,1068,1.5,3.5,-1.23050371954895,0.124130376962101
53,825,7308,"q",0,2071,4,3.5,0.852888821486308,0.124130376962101
54,825,7311,"q",0,1371,2,3,-0.813825211341897,-0.343183983365809
55,825,7316,"q",0,597,2,3,-0.813825211341897,-0.343183983365809
56,825,7309,"q",0,531,3.5,3.5,0.436210313279257,0.124130376962101
57,825,7305,"q",0,743,4.5,1.5,1.26956732969336,-1.74512706434954
58,825,7312,"q",0,786,1.5,3.5,-1.23050371954895,0.124130376962101
59,825,7318,"q",0,683,5,1.5,1.68624583790041,-1.74512706434954
60,825,7319,"q",0,1059,4.5,3.5,1.26956732969336,0.124130376962101
61,825,7313,"p",1,1419,3.5,2.5,0.436210313279257,-0.810498343693718
62,825,7317,"p",1,1146,2,5,-0.813825211341897,1.52607345794583
63,825,7320,"p",1,926,2,5,-0.813825211341897,1.52607345794583
64,825,7306,"p",1,941,1.5,5,-1.23050371954895,1.52607345794583
1,826,7266,"q",1,2232,4.5,1.5,1.26956732969336,-1.74512706434954
2,826,7264,"p",0,1567,2,4,-0.813825211341897,0.591444737290011
3,826,7260,"p",0,1517,3.5,1.5,0.436210313279257,-1.74512706434954
4,826,7263,"p",0,3078,4,4,0.852888821486308,0.591444737290011
5,826,7261,"p",0,1743,2.5,5,-0.397146703134846,1.52607345794583
6,826,7269,"q",1,1492,4,3.5,0.852888821486308,0.124130376962101
7,826,7271,"q",1,1207,5,1,1.68624583790041,-2.21244142467745
8,826,7270,"p",0,1188,1.5,4.5,-1.23050371954895,1.05875909761792
9,826,7258,"p",0,1150,4.5,1.5,1.26956732969336,-1.74512706434954
10,826,7267,"p",0,1656,2.5,4,-0.397146703134846,0.591444737290011
11,826,7265,"p",0,1165,2.5,4.5,-0.397146703134846,1.05875909761792
12,826,7268,"p",0,1434,3.5,4,0.436210313279257,0.591444737290011
13,826,7257,"p",0,1358,2,4,-0.813825211341897,0.591444737290011
14,826,7262,"p",0,683,1,5,-1.647182227756,1.52607345794583
15,826,7259,"p",0,1047,3.5,3,0.436210313279257,-0.343183983365809
16,826,7272,"p",0,1365,2,4,-0.813825211341897,0.591444737290011
17,826,7279,"q",1,1831,3,4,0.0195318050722055,0.591444737290011
18,826,7287,"q",1,1009,4,2,0.852888821486308,-1.27781270402163
19,826,7284,"q",1,2220,4.5,4,1.26956732969336,0.591444737290011
20,826,7285,"q",1,1162,3,4,0.0195318050722055,0.591444737290011
21,826,7276,"q",1,1816,3,2.5,0.0195318050722055,-0.810498343693718
22,826,7274,"p",0,1101,2,4,-0.813825211341897,0.591444737290011
23,826,7280,"p",0,1882,4.5,2,1.26956732969336,-1.27781270402163
24,826,7288,"p",0,1281,2,3,-0.813825211341897,-0.343183983365809
25,826,7283,"q",1,3075,4,3.5,0.852888821486308,0.124130376962101
26,826,7278,"p",0,2938,2,4,-0.813825211341897,0.591444737290011
27,826,7273,"p",0,1218,2,4,-0.813825211341897,0.591444737290011
28,826,7282,"p",0,782,4.5,2,1.26956732969336,-1.27781270402163
29,826,7281,"p",0,1508,1.5,3,-1.23050371954895,-0.343183983365809
30,826,7275,"q",1,1616,4.5,3,1.26956732969336,-0.343183983365809
31,826,7277,"p",0,1120,1,5,-1.647182227756,1.52607345794583
32,826,7286,"p",0,838,2,4,-0.813825211341897,0.591444737290011
33,826,7299,"q",1,4127,4.5,2,1.26956732969336,-1.27781270402163
34,826,7292,"p",0,1124,1.5,3.5,-1.23050371954895,0.124130376962101
35,826,7298,"p",0,634,2,4,-0.813825211341897,0.591444737290011
36,826,7295,"p",0,1227,4,2.5,0.852888821486308,-0.810498343693718
37,826,7300,"p",0,818,1.5,4,-1.23050371954895,0.591444737290011
38,826,7304,"p",0,621,2,3,-0.813825211341897,-0.343183983365809
39,826,7294,"p",0,919,2,3.5,-0.813825211341897,0.124130376962101
40,826,7302,"p",0,816,2,4,-0.813825211341897,0.591444737290011
41,826,7301,"p",0,894,3.5,3.5,0.436210313279257,0.124130376962101
42,826,7289,"p",0,1115,3,2.5,0.0195318050722055,-0.810498343693718
43,826,7290,"p",0,713,2,4,-0.813825211341897,0.591444737290011
44,826,7296,"p",0,1076,3,1.5,0.0195318050722055,-1.74512706434954
45,826,7293,"p",0,1018,4,3.5,0.852888821486308,0.124130376962101
46,826,7291,"p",0,840,4.5,1.5,1.26956732969336,-1.74512706434954
47,826,7297,"p",0,1024,4,3.5,0.852888821486308,0.124130376962101
48,826,7303,"p",0,2707,3.5,4,0.436210313279257,0.591444737290011
49,826,7311,"p",0,1365,2,3,-0.813825211341897,-0.343183983365809
50,826,7305,"q",1,1388,4.5,1.5,1.26956732969336,-1.74512706434954
51,826,7319,"q",1,1036,4.5,3.5,1.26956732969336,0.124130376962101
52,826,7320,"p",0,968,2,5,-0.813825211341897,1.52607345794583
53,826,7310,"p",0,1679,4,4.5,0.852888821486308,1.05875909761792
54,826,7312,"p",0,880,1.5,3.5,-1.23050371954895,0.124130376962101
55,826,7315,"p",0,490,5,2.5,1.68624583790041,-0.810498343693718
56,826,7313,"p",0,278,3.5,2.5,0.436210313279257,-0.810498343693718
57,826,7316,"p",0,613,2,3,-0.813825211341897,-0.343183983365809
58,826,7308,"p",0,295,4,3.5,0.852888821486308,0.124130376962101
59,826,7317,"p",0,763,2,5,-0.813825211341897,1.52607345794583
60,826,7318,"p",0,778,5,1.5,1.68624583790041,-1.74512706434954
61,826,7309,"p",0,1367,3.5,3.5,0.436210313279257,0.124130376962101
62,826,7314,"p",0,908,1,5,-1.647182227756,1.52607345794583
63,826,7307,"p",0,1014,1.5,3.5,-1.23050371954895,0.124130376962101
64,826,7306,"p",0,906,1.5,5,-1.23050371954895,1.52607345794583
1,829,7263,"p",1,2563,4,4,0.852888821486308,0.591444737290011
2,829,7259,"p",1,1239,3.5,3,0.436210313279257,-0.343183983365809
3,829,7271,"p",1,1359,5,1,1.68624583790041,-2.21244142467745
4,829,7270,"p",1,1234,1.5,4.5,-1.23050371954895,1.05875909761792
5,829,7268,"p",1,1097,3.5,4,0.436210313279257,0.591444737290011
6,829,7262,"q",0,1068,1,5,-1.647182227756,1.52607345794583
7,829,7264,"q",0,1840,2,4,-0.813825211341897,0.591444737290011
8,829,7257,"p",1,1864,2,4,-0.813825211341897,0.591444737290011
9,829,7261,"p",1,1049,2.5,5,-0.397146703134846,1.52607345794583
10,829,7265,"q",0,1500,2.5,4.5,-0.397146703134846,1.05875909761792
11,829,7260,"q",0,1819,3.5,1.5,0.436210313279257,-1.74512706434954
12,829,7267,"p",1,2384,2.5,4,-0.397146703134846,0.591444737290011
13,829,7269,"p",1,1207,4,3.5,0.852888821486308,0.124130376962101
14,829,7266,"p",1,1567,4.5,1.5,1.26956732969336,-1.74512706434954
15,829,7258,"p",1,3224,4.5,1.5,1.26956732969336,-1.74512706434954
16,829,7272,"q",0,1748,2,4,-0.813825211341897,0.591444737290011
17,829,7274,"p",1,1582,2,4,-0.813825211341897,0.591444737290011
18,829,7283,"q",0,2724,4,3.5,0.852888821486308,0.124130376962101
19,829,7281,"q",0,2475,1.5,3,-1.23050371954895,-0.343183983365809
20,829,7280,"p",1,2754,4.5,2,1.26956732969336,-1.27781270402163
21,829,7273,"q",0,1353,2,4,-0.813825211341897,0.591444737290011
22,829,7286,"q",0,1525,2,4,-0.813825211341897,0.591444737290011
23,829,7276,"p",1,1068,3,2.5,0.0195318050722055,-0.810498343693718
24,829,7288,"p",1,1373,2,3,-0.813825211341897,-0.343183983365809
25,829,7275,"p",1,1090,4.5,3,1.26956732969336,-0.343183983365809
26,829,7284,"p",1,1361,4.5,4,1.26956732969336,0.591444737290011
27,829,7277,"q",0,919,1,5,-1.647182227756,1.52607345794583
28,829,7278,"q",0,1881,2,4,-0.813825211341897,0.591444737290011
29,829,7285,"p",1,1516,3,4,0.0195318050722055,0.591444737290011
30,829,7282,"q",0,1074,4.5,2,1.26956732969336,-1.27781270402163
31,829,7279,"q",0,1591,3,4,0.0195318050722055,0.591444737290011
32,829,7287,"p",1,875,4,2,0.852888821486308,-1.27781270402163
33,829,7297,"p",1,1111,4,3.5,0.852888821486308,0.124130376962101
34,829,7301,"p",1,915,3.5,3.5,0.436210313279257,0.124130376962101
35,829,7300,"q",0,1089,1.5,4,-1.23050371954895,0.591444737290011
36,829,7296,"q",0,966,3,1.5,0.0195318050722055,-1.74512706434954
37,829,7292,"q",0,833,1.5,3.5,-1.23050371954895,0.124130376962101
38,829,7303,"q",0,1455,3.5,4,0.436210313279257,0.591444737290011
39,829,7290,"q",0,704,2,4,-0.813825211341897,0.591444737290011
40,829,7294,"q",0,1266,2,3.5,-0.813825211341897,0.124130376962101
41,829,7295,"p",1,1896,4,2.5,0.852888821486308,-0.810498343693718
42,829,7304,"p",1,3944,2,3,-0.813825211341897,-0.343183983365809
43,829,7291,"p",1,826,4.5,1.5,1.26956732969336,-1.74512706434954
44,829,7299,"p",1,1551,4.5,2,1.26956732969336,-1.27781270402163
45,829,7298,"q",0,411,2,4,-0.813825211341897,0.591444737290011
46,829,7293,"q",0,1043,4,3.5,0.852888821486308,0.124130376962101
47,829,7302,"q",0,765,2,4,-0.813825211341897,0.591444737290011
48,829,7289,"q",0,924,3,2.5,0.0195318050722055,-0.810498343693718
49,829,7310,"p",1,1302,4,4.5,0.852888821486308,1.05875909761792
50,829,7319,"p",1,1030,4.5,3.5,1.26956732969336,0.124130376962101
51,829,7314,"q",0,762,1,5,-1.647182227756,1.52607345794583
52,829,7308,"p",1,1868,4,3.5,0.852888821486308,0.124130376962101
53,829,7313,"p",1,735,3.5,2.5,0.436210313279257,-0.810498343693718
54,829,7311,"q",0,832,2,3,-0.813825211341897,-0.343183983365809
55,829,7317,"q",0,911,2,5,-0.813825211341897,1.52607345794583
56,829,7307,"q",0,2188,1.5,3.5,-1.23050371954895,0.124130376962101
57,829,7306,"q",0,1105,1.5,5,-1.23050371954895,1.52607345794583
58,829,7320,"q",0,665,2,5,-0.813825211341897,1.52607345794583
59,829,7305,"p",1,1027,4.5,1.5,1.26956732969336,-1.74512706434954
60,829,7318,"p",1,2369,5,1.5,1.68624583790041,-1.74512706434954
61,829,7309,"p",1,1200,3.5,3.5,0.436210313279257,0.124130376962101
62,829,7312,"q",0,657,1.5,3.5,-1.23050371954895,0.124130376962101
63,829,7315,"q",0,1667,5,2.5,1.68624583790041,-0.810498343693718
64,829,7316,"q",0,2181,2,3,-0.813825211341897,-0.343183983365809
1,830,7266,"q",1,4422,4.5,1.5,1.26956732969336,-1.74512706434954
2,830,7261,"q",1,2654,2.5,5,-0.397146703134846,1.52607345794583
3,830,7262,"p",0,4094,1,5,-1.647182227756,1.52607345794583
4,830,7272,"q",1,1027,2,4,-0.813825211341897,0.591444737290011
5,830,7260,"p",0,1750,3.5,1.5,0.436210313279257,-1.74512706434954
6,830,7271,"q",1,1023,5,1,1.68624583790041,-2.21244142467745
7,830,7270,"p",0,2302,1.5,4.5,-1.23050371954895,1.05875909761792
8,830,7267,"q",1,1417,2.5,4,-0.397146703134846,0.591444737290011
9,830,7268,"q",1,1436,3.5,4,0.436210313279257,0.591444737290011
10,830,7258,"p",0,1164,4.5,1.5,1.26956732969336,-1.74512706434954
11,830,7264,"q",1,811,2,4,-0.813825211341897,0.591444737290011
12,830,7269,"q",1,1684,4,3.5,0.852888821486308,0.124130376962101
13,830,7259,"q",1,1236,3.5,3,0.436210313279257,-0.343183983365809
14,830,7263,"q",1,1660,4,4,0.852888821486308,0.591444737290011
15,830,7257,"q",1,2752,2,4,-0.813825211341897,0.591444737290011
16,830,7265,"p",0,1357,2.5,4.5,-0.397146703134846,1.05875909761792
17,830,7278,"p",0,1437,2,4,-0.813825211341897,0.591444737290011
18,830,7288,"q",1,978,2,3,-0.813825211341897,-0.343183983365809
19,830,7283,"q",1,1960,4,3.5,0.852888821486308,0.124130376962101
20,830,7284,"q",1,2511,4.5,4,1.26956732969336,0.591444737290011
21,830,7280,"p",0,2487,4.5,2,1.26956732969336,-1.27781270402163
22,830,7279,"q",1,1082,3,4,0.0195318050722055,0.591444737290011
23,830,7277,"p",0,1523,1,5,-1.647182227756,1.52607345794583
24,830,7282,"q",1,1349,4.5,2,1.26956732969336,-1.27781270402163
25,830,7276,"q",1,1929,3,2.5,0.0195318050722055,-0.810498343693718
26,830,7281,"p",0,1159,1.5,3,-1.23050371954895,-0.343183983365809
27,830,7275,"q",1,1571,4.5,3,1.26956732969336,-0.343183983365809
28,830,7274,"q",1,1563,2,4,-0.813825211341897,0.591444737290011
29,830,7285,"q",1,893,3,4,0.0195318050722055,0.591444737290011
30,830,7286,"q",1,2447,2,4,-0.813825211341897,0.591444737290011
31,830,7287,"q",1,1502,4,2,0.852888821486308,-1.27781270402163
32,830,7273,"q",1,1352,2,4,-0.813825211341897,0.591444737290011
33,830,7290,"p",0,1190,2,4,-0.813825211341897,0.591444737290011
34,830,7295,"q",1,1630,4,2.5,0.852888821486308,-0.810498343693718
35,830,7300,"p",0,919,1.5,4,-1.23050371954895,0.591444737290011
36,830,7289,"q",1,806,3,2.5,0.0195318050722055,-0.810498343693718
37,830,7297,"q",1,1078,4,3.5,0.852888821486308,0.124130376962101
38,830,7299,"q",1,1781,4.5,2,1.26956732969336,-1.27781270402163
39,830,7302,"q",1,772,2,4,-0.813825211341897,0.591444737290011
40,830,7294,"q",1,1190,2,3.5,-0.813825211341897,0.124130376962101
41,830,7303,"q",1,830,3.5,4,0.436210313279257,0.591444737290011
42,830,7304,"q",1,988,2,3,-0.813825211341897,-0.343183983365809
43,830,7293,"q",1,570,4,3.5,0.852888821486308,0.124130376962101
44,830,7301,"q",1,148,3.5,3.5,0.436210313279257,0.124130376962101
45,830,7298,"q",1,415,2,4,-0.813825211341897,0.591444737290011
46,830,7291,"q",1,298,4.5,1.5,1.26956732969336,-1.74512706434954
47,830,7296,"q",1,557,3,1.5,0.0195318050722055,-1.74512706434954
48,830,7292,"p",0,937,1.5,3.5,-1.23050371954895,0.124130376962101
49,830,7314,"q",1,69,1,5,-1.647182227756,1.52607345794583
50,830,7307,"p",0,605,1.5,3.5,-1.23050371954895,0.124130376962101
51,830,7317,"q",1,1659,2,5,-0.813825211341897,1.52607345794583
52,830,7310,"q",1,496,4,4.5,0.852888821486308,1.05875909761792
53,830,7313,"q",1,447,3.5,2.5,0.436210313279257,-0.810498343693718
54,830,7311,"q",1,477,2,3,-0.813825211341897,-0.343183983365809
55,830,7312,"q",1,575,1.5,3.5,-1.23050371954895,0.124130376962101
56,830,7319,"q",1,567,4.5,3.5,1.26956732969336,0.124130376962101
57,830,7315,"q",1,689,5,2.5,1.68624583790041,-0.810498343693718
58,830,7316,"q",1,536,2,3,-0.813825211341897,-0.343183983365809
59,830,7320,"q",1,363,2,5,-0.813825211341897,1.52607345794583
60,830,7308,"q",1,296,4,3.5,0.852888821486308,0.124130376962101
61,830,7318,"q",1,262,5,1.5,1.68624583790041,-1.74512706434954
62,830,7305,"q",1,421,4.5,1.5,1.26956732969336,-1.74512706434954
63,830,7309,"q",1,311,3.5,3.5,0.436210313279257,0.124130376962101
64,830,7306,"q",1,275,1.5,5,-1.23050371954895,1.52607345794583
1,832,7261,"q",1,5444,2.5,5,-0.397146703134846,1.52607345794583
2,832,7269,"q",1,1887,4,3.5,0.852888821486308,0.124130376962101
3,832,7262,"p",0,1226,1,5,-1.647182227756,1.52607345794583
4,832,7267,"q",1,2399,2.5,4,-0.397146703134846,0.591444737290011
5,832,7268,"q",1,2303,3.5,4,0.436210313279257,0.591444737290011
6,832,7265,"p",0,1229,2.5,4.5,-0.397146703134846,1.05875909761792
7,832,7264,"q",1,1694,2,4,-0.813825211341897,0.591444737290011
8,832,7271,"q",1,906,5,1,1.68624583790041,-2.21244142467745
9,832,7259,"q",1,1246,3.5,3,0.436210313279257,-0.343183983365809
10,832,7263,"q",1,1786,4,4,0.852888821486308,0.591444737290011
11,832,7272,"p",0,1566,2,4,-0.813825211341897,0.591444737290011
12,832,7266,"q",1,1407,4.5,1.5,1.26956732969336,-1.74512706434954
13,832,7257,"p",0,2782,2,4,-0.813825211341897,0.591444737290011
14,832,7258,"q",1,1599,4.5,1.5,1.26956732969336,-1.74512706434954
15,832,7260,"q",1,1559,3.5,1.5,0.436210313279257,-1.74512706434954
16,832,7270,"p",0,1055,1.5,4.5,-1.23050371954895,1.05875909761792
17,832,7286,"q",1,1662,2,4,-0.813825211341897,0.591444737290011
18,832,7284,"q",1,1274,4.5,4,1.26956732969336,0.591444737290011
19,832,7278,"q",1,1963,2,4,-0.813825211341897,0.591444737290011
20,832,7279,"q",1,1880,3,4,0.0195318050722055,0.591444737290011
21,832,7280,"q",1,1170,4.5,2,1.26956732969336,-1.27781270402163
22,832,7273,"p",0,2875,2,4,-0.813825211341897,0.591444737290011
23,832,7277,"p",0,857,1,5,-1.647182227756,1.52607345794583
24,832,7287,"q",1,923,4,2,0.852888821486308,-1.27781270402163
25,832,7275,"q",1,1347,4.5,3,1.26956732969336,-0.343183983365809
26,832,7282,"q",1,1820,4.5,2,1.26956732969336,-1.27781270402163
27,832,7274,"p",0,1844,2,4,-0.813825211341897,0.591444737290011
28,832,7281,"q",1,1748,1.5,3,-1.23050371954895,-0.343183983365809
29,832,7285,"q",1,1101,3,4,0.0195318050722055,0.591444737290011
30,832,7276,"q",1,2156,3,2.5,0.0195318050722055,-0.810498343693718
31,832,7288,"p",0,2118,2,3,-0.813825211341897,-0.343183983365809
32,832,7283,"q",1,1724,4,3.5,0.852888821486308,0.124130376962101
33,832,7301,"q",1,1387,3.5,3.5,0.436210313279257,0.124130376962101
34,832,7291,"q",1,993,4.5,1.5,1.26956732969336,-1.74512706434954
35,832,7295,"q",1,778,4,2.5,0.852888821486308,-0.810498343693718
36,832,7299,"q",1,1044,4.5,2,1.26956732969336,-1.27781270402163
37,832,7298,"p",0,1038,2,4,-0.813825211341897,0.591444737290011
38,832,7300,"p",0,1001,1.5,4,-1.23050371954895,0.591444737290011
39,832,7290,"p",0,748,2,4,-0.813825211341897,0.591444737290011
40,832,7293,"q",1,1362,4,3.5,0.852888821486308,0.124130376962101
41,832,7294,"p",0,1565,2,3.5,-0.813825211341897,0.124130376962101
42,832,7302,"q",1,1230,2,4,-0.813825211341897,0.591444737290011
43,832,7292,"p",0,976,1.5,3.5,-1.23050371954895,0.124130376962101
44,832,7289,"p",0,1858,3,2.5,0.0195318050722055,-0.810498343693718
45,832,7304,"q",1,1641,2,3,-0.813825211341897,-0.343183983365809
46,832,7296,"q",1,1109,3,1.5,0.0195318050722055,-1.74512706434954
47,832,7303,"q",1,1220,3.5,4,0.436210313279257,0.591444737290011
48,832,7297,"q",1,1253,4,3.5,0.852888821486308,0.124130376962101
49,832,7310,"q",1,2007,4,4.5,0.852888821486308,1.05875909761792
50,832,7315,"q",1,1000,5,2.5,1.68624583790041,-0.810498343693718
51,832,7311,"q",1,1598,2,3,-0.813825211341897,-0.343183983365809
52,832,7316,"p",0,1026,2,3,-0.813825211341897,-0.343183983365809
53,832,7312,"q",1,2312,1.5,3.5,-1.23050371954895,0.124130376962101
54,832,7308,"q",1,939,4,3.5,0.852888821486308,0.124130376962101
55,832,7314,"p",0,1298,1,5,-1.647182227756,1.52607345794583
56,832,7307,"p",0,2631,1.5,3.5,-1.23050371954895,0.124130376962101
57,832,7313,"q",1,1542,3.5,2.5,0.436210313279257,-0.810498343693718
58,832,7317,"q",1,1784,2,5,-0.813825211341897,1.52607345794583
59,832,7320,"p",0,1049,2,5,-0.813825211341897,1.52607345794583
60,832,7319,"q",1,1574,4.5,3.5,1.26956732969336,0.124130376962101
61,832,7318,"q",1,1030,5,1.5,1.68624583790041,-1.74512706434954
62,832,7309,"q",1,1154,3.5,3.5,0.436210313279257,0.124130376962101
63,832,7305,"q",1,1017,4.5,1.5,1.26956732969336,-1.74512706434954
64,832,7306,"p",0,897,1.5,5,-1.23050371954895,1.52607345794583
1,843,7265,"q",0,4971,2.5,4.5,-0.397146703134846,1.05875909761792
2,843,7257,"p",1,3407,2,4,-0.813825211341897,0.591444737290011
3,843,7262,"q",0,1106,1,5,-1.647182227756,1.52607345794583
4,843,7259,"p",1,1851,3.5,3,0.436210313279257,-0.343183983365809
5,843,7261,"p",1,1151,2.5,5,-0.397146703134846,1.52607345794583
6,843,7270,"p",1,1044,1.5,4.5,-1.23050371954895,1.05875909761792
7,843,7271,"p",1,907,5,1,1.68624583790041,-2.21244142467745
8,843,7266,"p",1,2540,4.5,1.5,1.26956732969336,-1.74512706434954
9,843,7268,"p",1,1181,3.5,4,0.436210313279257,0.591444737290011
10,843,7263,"p",1,1385,4,4,0.852888821486308,0.591444737290011
11,843,7258,"p",1,1569,4.5,1.5,1.26956732969336,-1.74512706434954
12,843,7269,"p",1,2073,4,3.5,0.852888821486308,0.124130376962101
13,843,7272,"p",1,1550,2,4,-0.813825211341897,0.591444737290011
14,843,7264,"p",1,1070,2,4,-0.813825211341897,0.591444737290011
15,843,7260,"p",1,1482,3.5,1.5,0.436210313279257,-1.74512706434954
16,843,7267,"p",1,2429,2.5,4,-0.397146703134846,0.591444737290011
17,843,7287,"p",1,2184,4,2,0.852888821486308,-1.27781270402163
18,843,7278,"p",1,1503,2,4,-0.813825211341897,0.591444737290011
19,843,7286,"p",1,722,2,4,-0.813825211341897,0.591444737290011
20,843,7277,"q",0,1401,1,5,-1.647182227756,1.52607345794583
21,843,7273,"q",0,1669,2,4,-0.813825211341897,0.591444737290011
22,843,7282,"p",1,1167,4.5,2,1.26956732969336,-1.27781270402163
23,843,7288,"p",1,904,2,3,-0.813825211341897,-0.343183983365809
24,843,7284,"p",1,1120,4.5,4,1.26956732969336,0.591444737290011
25,843,7285,"p",1,1558,3,4,0.0195318050722055,0.591444737290011
26,843,7281,"p",1,823,1.5,3,-1.23050371954895,-0.343183983365809
27,843,7283,"p",1,2523,4,3.5,0.852888821486308,0.124130376962101
28,843,7280,"p",1,2590,4.5,2,1.26956732969336,-1.27781270402163
29,843,7275,"p",1,1332,4.5,3,1.26956732969336,-0.343183983365809
30,843,7274,"p",1,1031,2,4,-0.813825211341897,0.591444737290011
31,843,7279,"p",1,1421,3,4,0.0195318050722055,0.591444737290011
32,843,7276,"p",1,873,3,2.5,0.0195318050722055,-0.810498343693718
33,843,7292,"q",0,2011,1.5,3.5,-1.23050371954895,0.124130376962101
34,843,7296,"p",1,1128,3,1.5,0.0195318050722055,-1.74512706434954
35,843,7303,"p",1,1118,3.5,4,0.436210313279257,0.591444737290011
36,843,7304,"p",1,1338,2,3,-0.813825211341897,-0.343183983365809
37,843,7291,"p",1,1292,4.5,1.5,1.26956732969336,-1.74512706434954
38,843,7289,"p",1,1577,3,2.5,0.0195318050722055,-0.810498343693718
39,843,7302,"p",1,1588,2,4,-0.813825211341897,0.591444737290011
40,843,7295,"p",1,839,4,2.5,0.852888821486308,-0.810498343693718
41,843,7294,"q",0,2011,2,3.5,-0.813825211341897,0.124130376962101
42,843,7298,"q",0,1040,2,4,-0.813825211341897,0.591444737290011
43,843,7297,"p",1,5310,4,3.5,0.852888821486308,0.124130376962101
44,843,7300,"q",0,1271,1.5,4,-1.23050371954895,0.591444737290011
45,843,7299,"p",1,1288,4.5,2,1.26956732969336,-1.27781270402163
46,843,7301,"p",1,1132,3.5,3.5,0.436210313279257,0.124130376962101
47,843,7290,"q",0,951,2,4,-0.813825211341897,0.591444737290011
48,843,7293,"q",0,1384,4,3.5,0.852888821486308,0.124130376962101
49,843,7315,"p",1,3975,5,2.5,1.68624583790041,-0.810498343693718
50,843,7318,"p",1,2494,5,1.5,1.68624583790041,-1.74512706434954
51,843,7310,"q",0,3426,4,4.5,0.852888821486308,1.05875909761792
52,843,7311,"q",0,844,2,3,-0.813825211341897,-0.343183983365809
53,843,7309,"p",1,1364,3.5,3.5,0.436210313279257,0.124130376962101
54,843,7314,"p",1,1400,1,5,-1.647182227756,1.52607345794583
55,843,7305,"p",1,1400,4.5,1.5,1.26956732969336,-1.74512706434954
56,843,7308,"p",1,3473,4,3.5,0.852888821486308,0.124130376962101
57,843,7312,"p",1,1196,1.5,3.5,-1.23050371954895,0.124130376962101
58,843,7320,"p",1,718,2,5,-0.813825211341897,1.52607345794583
59,843,7317,"p",1,696,2,5,-0.813825211341897,1.52607345794583
60,843,7319,"p",1,1157,4.5,3.5,1.26956732969336,0.124130376962101
61,843,7307,"p",1,1666,1.5,3.5,-1.23050371954895,0.124130376962101
62,843,7313,"p",1,778,3.5,2.5,0.436210313279257,-0.810498343693718
63,843,7316,"q",0,811,2,3,-0.813825211341897,-0.343183983365809
64,843,7306,"p",1,918,1.5,5,-1.23050371954895,1.52607345794583
1,848,7271,"p",0,5706,5,1,1.68624583790041,-2.21244142467745
2,848,7269,"p",0,2852,4,3.5,0.852888821486308,0.124130376962101
3,848,7272,"q",1,4150,2,4,-0.813825211341897,0.591444737290011
4,848,7260,"q",1,1477,3.5,1.5,0.436210313279257,-1.74512706434954
5,848,7265,"q",1,1018,2.5,4.5,-0.397146703134846,1.05875909761792
6,848,7258,"p",0,1685,4.5,1.5,1.26956732969336,-1.74512706434954
7,848,7259,"q",1,978,3.5,3,0.436210313279257,-0.343183983365809
8,848,7261,"q",1,912,2.5,5,-0.397146703134846,1.52607345794583
9,848,7257,"q",1,4709,2,4,-0.813825211341897,0.591444737290011
10,848,7263,"q",1,1507,4,4,0.852888821486308,0.591444737290011
11,848,7267,"q",1,982,2.5,4,-0.397146703134846,0.591444737290011
12,848,7262,"q",1,775,1,5,-1.647182227756,1.52607345794583
13,848,7268,"p",0,1141,3.5,4,0.436210313279257,0.591444737290011
14,848,7270,"q",1,1459,1.5,4.5,-1.23050371954895,1.05875909761792
15,848,7266,"p",0,1120,4.5,1.5,1.26956732969336,-1.74512706434954
16,848,7264,"q",1,782,2,4,-0.813825211341897,0.591444737290011
17,848,7280,"p",0,1608,4.5,2,1.26956732969336,-1.27781270402163
18,848,7274,"q",1,716,2,4,-0.813825211341897,0.591444737290011
19,848,7283,"q",1,1356,4,3.5,0.852888821486308,0.124130376962101
20,848,7281,"q",1,985,1.5,3,-1.23050371954895,-0.343183983365809
21,848,7288,"q",1,792,2,3,-0.813825211341897,-0.343183983365809
22,848,7276,"q",1,854,3,2.5,0.0195318050722055,-0.810498343693718
23,848,7285,"q",1,794,3,4,0.0195318050722055,0.591444737290011
24,848,7282,"p",0,1039,4.5,2,1.26956732969336,-1.27781270402163
25,848,7277,"q",1,911,1,5,-1.647182227756,1.52607345794583
26,848,7275,"q",1,1199,4.5,3,1.26956732969336,-0.343183983365809
27,848,7287,"q",1,1357,4,2,0.852888821486308,-1.27781270402163
28,848,7278,"q",1,1209,2,4,-0.813825211341897,0.591444737290011
29,848,7273,"q",1,1151,2,4,-0.813825211341897,0.591444737290011
30,848,7284,"q",1,1118,4.5,4,1.26956732969336,0.591444737290011
31,848,7279,"p",0,1520,3,4,0.0195318050722055,0.591444737290011
32,848,7286,"q",1,1039,2,4,-0.813825211341897,0.591444737290011
33,848,7297,"q",1,997,4,3.5,0.852888821486308,0.124130376962101
34,848,7293,"q",1,988,4,3.5,0.852888821486308,0.124130376962101
35,848,7290,"q",1,799,2,4,-0.813825211341897,0.591444737290011
36,848,7299,"q",1,1541,4.5,2,1.26956732969336,-1.27781270402163
37,848,7289,"q",1,964,3,2.5,0.0195318050722055,-0.810498343693718
38,848,7301,"p",0,1910,3.5,3.5,0.436210313279257,0.124130376962101
39,848,7304,"q",1,1362,2,3,-0.813825211341897,-0.343183983365809
40,848,7295,"q",1,985,4,2.5,0.852888821486308,-0.810498343693718
41,848,7298,"q",1,821,2,4,-0.813825211341897,0.591444737290011
42,848,7302,"p",0,1843,2,4,-0.813825211341897,0.591444737290011
43,848,7303,"q",1,1043,3.5,4,0.436210313279257,0.591444737290011
44,848,7296,"q",1,1121,3,1.5,0.0195318050722055,-1.74512706434954
45,848,7292,"p",0,1129,1.5,3.5,-1.23050371954895,0.124130376962101
46,848,7291,"p",0,1407,4.5,1.5,1.26956732969336,-1.74512706434954
47,848,7300,"q",1,1291,1.5,4,-1.23050371954895,0.591444737290011
48,848,7294,"q",1,919,2,3.5,-0.813825211341897,0.124130376962101
49,848,7312,"q",1,891,1.5,3.5,-1.23050371954895,0.124130376962101
50,848,7317,"q",1,701,2,5,-0.813825211341897,1.52607345794583
51,848,7313,"q",1,1017,3.5,2.5,0.436210313279257,-0.810498343693718
52,848,7314,"q",1,1249,1,5,-1.647182227756,1.52607345794583
53,848,7306,"q",1,781,1.5,5,-1.23050371954895,1.52607345794583
54,848,7316,"q",1,804,2,3,-0.813825211341897,-0.343183983365809
55,848,7318,"q",1,905,5,1.5,1.68624583790041,-1.74512706434954
56,848,7310,"p",0,1321,4,4.5,0.852888821486308,1.05875909761792
57,848,7319,"p",0,1583,4.5,3.5,1.26956732969336,0.124130376962101
58,848,7305,"q",1,931,4.5,1.5,1.26956732969336,-1.74512706434954
59,848,7307,"q",1,652,1.5,3.5,-1.23050371954895,0.124130376962101
60,848,7308,"q",1,1038,4,3.5,0.852888821486308,0.124130376962101
61,848,7311,"q",1,1648,2,3,-0.813825211341897,-0.343183983365809
62,848,7320,"q",1,682,2,5,-0.813825211341897,1.52607345794583
63,848,7309,"q",1,1606,3.5,3.5,0.436210313279257,0.124130376962101
64,848,7315,"p",0,1118,5,2.5,1.68624583790041,-0.810498343693718
1,849,7257,"q",0,853,2,4,-0.813825211341897,0.591444737290011
2,849,7267,"p",1,1304,2.5,4,-0.397146703134846,0.591444737290011
3,849,7260,"p",1,814,3.5,1.5,0.436210313279257,-1.74512706434954
4,849,7259,"p",1,921,3.5,3,0.436210313279257,-0.343183983365809
5,849,7262,"q",0,1128,1,5,-1.647182227756,1.52607345794583
6,849,7261,"p",1,1296,2.5,5,-0.397146703134846,1.52607345794583
7,849,7263,"p",1,1298,4,4,0.852888821486308,0.591444737290011
8,849,7266,"p",1,1057,4.5,1.5,1.26956732969336,-1.74512706434954
9,849,7272,"q",0,1094,2,4,-0.813825211341897,0.591444737290011
10,849,7258,"p",1,3497,4.5,1.5,1.26956732969336,-1.74512706434954
11,849,7268,"p",1,1897,3.5,4,0.436210313279257,0.591444737290011
12,849,7265,"q",0,2076,2.5,4.5,-0.397146703134846,1.05875909761792
13,849,7270,"q",0,2282,1.5,4.5,-1.23050371954895,1.05875909761792
14,849,7264,"p",1,1663,2,4,-0.813825211341897,0.591444737290011
15,849,7271,"p",1,1041,5,1,1.68624583790041,-2.21244142467745
16,849,7269,"p",1,876,4,3.5,0.852888821486308,0.124130376962101
17,849,7276,"p",1,1871,3,2.5,0.0195318050722055,-0.810498343693718
18,849,7287,"p",1,896,4,2,0.852888821486308,-1.27781270402163
19,849,7281,"q",0,1265,1.5,3,-1.23050371954895,-0.343183983365809
20,849,7288,"p",1,1132,2,3,-0.813825211341897,-0.343183983365809
21,849,7285,"p",1,1326,3,4,0.0195318050722055,0.591444737290011
22,849,7286,"q",0,1048,2,4,-0.813825211341897,0.591444737290011
23,849,7280,"p",1,1165,4.5,2,1.26956732969336,-1.27781270402163
24,849,7278,"p",1,1351,2,4,-0.813825211341897,0.591444737290011
25,849,7283,"p",1,2181,4,3.5,0.852888821486308,0.124130376962101
26,849,7284,"p",1,1244,4.5,4,1.26956732969336,0.591444737290011
27,849,7275,"p",1,1288,4.5,3,1.26956732969336,-0.343183983365809
28,849,7274,"p",1,645,2,4,-0.813825211341897,0.591444737290011
29,849,7273,"q",0,1380,2,4,-0.813825211341897,0.591444737290011
30,849,7279,"p",1,1784,3,4,0.0195318050722055,0.591444737290011
31,849,7282,"q",0,1995,4.5,2,1.26956732969336,-1.27781270402163
32,849,7277,"q",0,1056,1,5,-1.647182227756,1.52607345794583
33,849,7295,"p",1,855,4,2.5,0.852888821486308,-0.810498343693718
34,849,7293,"p",1,1374,4,3.5,0.852888821486308,0.124130376962101
35,849,7302,"q",0,1514,2,4,-0.813825211341897,0.591444737290011
36,849,7297,"p",1,2261,4,3.5,0.852888821486308,0.124130376962101
37,849,7292,"q",0,2288,1.5,3.5,-1.23050371954895,0.124130376962101
38,849,7290,"q",0,998,2,4,-0.813825211341897,0.591444737290011
39,849,7301,"p",1,1373,3.5,3.5,0.436210313279257,0.124130376962101
40,849,7289,"p",1,1278,3,2.5,0.0195318050722055,-0.810498343693718
41,849,7299,"p",1,1405,4.5,2,1.26956732969336,-1.27781270402163
42,849,7294,"q",0,1455,2,3.5,-0.813825211341897,0.124130376962101
43,849,7300,"q",0,1128,1.5,4,-1.23050371954895,0.591444737290011
44,849,7304,"q",0,1630,2,3,-0.813825211341897,-0.343183983365809
45,849,7303,"p",1,1041,3.5,4,0.436210313279257,0.591444737290011
46,849,7296,"p",1,1254,3,1.5,0.0195318050722055,-1.74512706434954
47,849,7298,"q",0,1231,2,4,-0.813825211341897,0.591444737290011
48,849,7291,"p",1,1038,4.5,1.5,1.26956732969336,-1.74512706434954
49,849,7317,"q",0,1181,2,5,-0.813825211341897,1.52607345794583
50,849,7314,"q",0,1080,1,5,-1.647182227756,1.52607345794583
51,849,7311,"q",0,990,2,3,-0.813825211341897,-0.343183983365809
52,849,7316,"p",1,1838,2,3,-0.813825211341897,-0.343183983365809
53,849,7310,"p",1,1078,4,4.5,0.852888821486308,1.05875909761792
54,849,7318,"p",1,950,5,1.5,1.68624583790041,-1.74512706434954
55,849,7312,"p",1,849,1.5,3.5,-1.23050371954895,0.124130376962101
56,849,7313,"p",1,943,3.5,2.5,0.436210313279257,-0.810498343693718
57,849,7319,"p",1,1344,4.5,3.5,1.26956732969336,0.124130376962101
58,849,7305,"p",1,1156,4.5,1.5,1.26956732969336,-1.74512706434954
59,849,7307,"p",1,1914,1.5,3.5,-1.23050371954895,0.124130376962101
60,849,7308,"p",1,1355,4,3.5,0.852888821486308,0.124130376962101
61,849,7315,"p",1,914,5,2.5,1.68624583790041,-0.810498343693718
62,849,7306,"q",0,1099,1.5,5,-1.23050371954895,1.52607345794583
63,849,7320,"q",0,1131,2,5,-0.813825211341897,1.52607345794583
64,849,7309,"p",1,1659,3.5,3.5,0.436210313279257,0.124130376962101
1,862,7261,"p",0,6638,2.5,5,-0.397146703134846,1.52607345794583
2,862,7270,"p",0,1526,1.5,4.5,-1.23050371954895,1.05875909761792
3,862,7269,"q",1,1087,4,3.5,0.852888821486308,0.124130376962101
4,862,7272,"q",1,1616,2,4,-0.813825211341897,0.591444737290011
5,862,7258,"q",1,3974,4.5,1.5,1.26956732969336,-1.74512706434954
6,862,7268,"p",0,900,3.5,4,0.436210313279257,0.591444737290011
7,862,7260,"q",1,1304,3.5,1.5,0.436210313279257,-1.74512706434954
8,862,7262,"p",0,1243,1,5,-1.647182227756,1.52607345794583
9,862,7263,"q",1,2291,4,4,0.852888821486308,0.591444737290011
10,862,7267,"p",0,2862,2.5,4,-0.397146703134846,0.591444737290011
11,862,7266,"p",0,1312,4.5,1.5,1.26956732969336,-1.74512706434954
12,862,7265,"p",0,1396,2.5,4.5,-0.397146703134846,1.05875909761792
13,862,7257,"q",1,2523,2,4,-0.813825211341897,0.591444737290011
14,862,7259,"p",0,854,3.5,3,0.436210313279257,-0.343183983365809
15,862,7264,"p",0,1240,2,4,-0.813825211341897,0.591444737290011
16,862,7271,"p",0,1289,5,1,1.68624583790041,-2.21244142467745
17,862,7284,"q",1,2270,4.5,4,1.26956732969336,0.591444737290011
18,862,7274,"p",0,5448,2,4,-0.813825211341897,0.591444737290011
19,862,7281,"q",1,2192,1.5,3,-1.23050371954895,-0.343183983365809
20,862,7279,"q",1,1175,3,4,0.0195318050722055,0.591444737290011
21,862,7285,"q",1,1255,3,4,0.0195318050722055,0.591444737290011
22,862,7275,"q",1,1829,4.5,3,1.26956732969336,-0.343183983365809
23,862,7276,"p",0,4907,3,2.5,0.0195318050722055,-0.810498343693718
24,862,7286,"p",0,1108,2,4,-0.813825211341897,0.591444737290011
25,862,7288,"p",0,2235,2,3,-0.813825211341897,-0.343183983365809
26,862,7287,"q",1,1901,4,2,0.852888821486308,-1.27781270402163
27,862,7278,"q",1,2963,2,4,-0.813825211341897,0.591444737290011
28,862,7277,"p",0,1527,1,5,-1.647182227756,1.52607345794583
29,862,7280,"p",0,1399,4.5,2,1.26956732969336,-1.27781270402163
30,862,7283,"q",1,2016,4,3.5,0.852888821486308,0.124130376962101
31,862,7282,"q",1,1771,4.5,2,1.26956732969336,-1.27781270402163
32,862,7273,"p",0,1675,2,4,-0.813825211341897,0.591444737290011
33,862,7293,"p",0,2570,4,3.5,0.852888821486308,0.124130376962101
34,862,7298,"p",0,1236,2,4,-0.813825211341897,0.591444737290011
35,862,7296,"p",0,3109,3,1.5,0.0195318050722055,-1.74512706434954
36,862,7299,"q",1,1734,4.5,2,1.26956732969336,-1.27781270402163
37,862,7304,"p",0,1766,2,3,-0.813825211341897,-0.343183983365809
38,862,7291,"q",1,1451,4.5,1.5,1.26956732969336,-1.74512706434954
39,862,7297,"q",1,1416,4,3.5,0.852888821486308,0.124130376962101
40,862,7301,"p",0,1237,3.5,3.5,0.436210313279257,0.124130376962101
41,862,7300,"p",0,1253,1.5,4,-1.23050371954895,0.591444737290011
42,862,7292,"p",0,854,1.5,3.5,-1.23050371954895,0.124130376962101
43,862,7290,"q",1,983,2,4,-0.813825211341897,0.591444737290011
44,862,7303,"q",1,2403,3.5,4,0.436210313279257,0.591444737290011
45,862,7302,"q",1,3970,2,4,-0.813825211341897,0.591444737290011
46,862,7295,"q",1,1591,4,2.5,0.852888821486308,-0.810498343693718
47,862,7289,"p",0,1712,3,2.5,0.0195318050722055,-0.810498343693718
48,862,7294,"p",0,1555,2,3.5,-0.813825211341897,0.124130376962101
49,862,7308,"q",1,1647,4,3.5,0.852888821486308,0.124130376962101
50,862,7307,"p",0,2167,1.5,3.5,-1.23050371954895,0.124130376962101
51,862,7314,"p",0,1193,1,5,-1.647182227756,1.52607345794583
52,862,7320,"q",1,2536,2,5,-0.813825211341897,1.52607345794583
53,862,7315,"q",1,2073,5,2.5,1.68624583790041,-0.810498343693718
54,862,7306,"q",1,1638,1.5,5,-1.23050371954895,1.52607345794583
55,862,7310,"q",1,1559,4,4.5,0.852888821486308,1.05875909761792
56,862,7311,"q",1,1499,2,3,-0.813825211341897,-0.343183983365809
57,862,7317,"q",1,1114,2,5,-0.813825211341897,1.52607345794583
58,862,7305,"p",0,2853,4.5,1.5,1.26956732969336,-1.74512706434954
59,862,7313,"q",1,1738,3.5,2.5,0.436210313279257,-0.810498343693718
60,862,7316,"p",0,3409,2,3,-0.813825211341897,-0.343183983365809
61,862,7312,"p",0,1247,1.5,3.5,-1.23050371954895,0.124130376962101
62,862,7319,"q",1,1222,4.5,3.5,1.26956732969336,0.124130376962101
63,862,7309,"q",1,984,3.5,3.5,0.436210313279257,0.124130376962101
64,862,7318,"q",1,1723,5,1.5,1.68624583790041,-1.74512706434954
1,863,7257,"q",0,3075,2,4,-0.813825211341897,0.591444737290011
2,863,7263,"q",0,3354,4,4,0.852888821486308,0.591444737290011
3,863,7267,"p",1,1607,2.5,4,-0.397146703134846,0.591444737290011
4,863,7260,"p",1,1204,3.5,1.5,0.436210313279257,-1.74512706434954
5,863,7272,"p",1,1081,2,4,-0.813825211341897,0.591444737290011
6,863,7271,"p",1,1477,5,1,1.68624583790041,-2.21244142467745
7,863,7268,"p",1,2044,3.5,4,0.436210313279257,0.591444737290011
8,863,7264,"p",1,962,2,4,-0.813825211341897,0.591444737290011
9,863,7262,"q",0,989,1,5,-1.647182227756,1.52607345794583
10,863,7269,"p",1,1228,4,3.5,0.852888821486308,0.124130376962101
11,863,7259,"p",1,1751,3.5,3,0.436210313279257,-0.343183983365809
12,863,7261,"p",1,989,2.5,5,-0.397146703134846,1.52607345794583
13,863,7270,"q",0,2423,1.5,4.5,-1.23050371954895,1.05875909761792
14,863,7265,"q",0,1312,2.5,4.5,-0.397146703134846,1.05875909761792
15,863,7258,"p",1,1730,4.5,1.5,1.26956732969336,-1.74512706434954
16,863,7266,"p",1,894,4.5,1.5,1.26956732969336,-1.74512706434954
17,863,7276,"p",1,2481,3,2.5,0.0195318050722055,-0.810498343693718
18,863,7273,"p",1,4675,2,4,-0.813825211341897,0.591444737290011
19,863,7285,"p",1,1788,3,4,0.0195318050722055,0.591444737290011
20,863,7279,"p",1,860,3,4,0.0195318050722055,0.591444737290011
21,863,7280,"p",1,932,4.5,2,1.26956732969336,-1.27781270402163
22,863,7281,"p",1,884,1.5,3,-1.23050371954895,-0.343183983365809
23,863,7274,"p",1,838,2,4,-0.813825211341897,0.591444737290011
24,863,7277,"q",0,1006,1,5,-1.647182227756,1.52607345794583
25,863,7282,"q",0,1288,4.5,2,1.26956732969336,-1.27781270402163
26,863,7284,"p",1,1016,4.5,4,1.26956732969336,0.591444737290011
27,863,7286,"p",1,1477,2,4,-0.813825211341897,0.591444737290011
28,863,7278,"p",1,1004,2,4,-0.813825211341897,0.591444737290011
29,863,7275,"p",1,759,4.5,3,1.26956732969336,-0.343183983365809
30,863,7287,"p",1,553,4,2,0.852888821486308,-1.27781270402163
31,863,7283,"p",1,957,4,3.5,0.852888821486308,0.124130376962101
32,863,7288,"p",1,829,2,3,-0.813825211341897,-0.343183983365809
33,863,7302,"q",0,2062,2,4,-0.813825211341897,0.591444737290011
34,863,7299,"p",1,1380,4.5,2,1.26956732969336,-1.27781270402163
35,863,7294,"q",0,1219,2,3.5,-0.813825211341897,0.124130376962101
36,863,7296,"q",0,2125,3,1.5,0.0195318050722055,-1.74512706434954
37,863,7301,"p",1,1266,3.5,3.5,0.436210313279257,0.124130376962101
38,863,7292,"q",0,2026,1.5,3.5,-1.23050371954895,0.124130376962101
39,863,7303,"p",1,1255,3.5,4,0.436210313279257,0.591444737290011
40,863,7298,"q",0,1425,2,4,-0.813825211341897,0.591444737290011
41,863,7289,"q",0,905,3,2.5,0.0195318050722055,-0.810498343693718
42,863,7290,"q",0,641,2,4,-0.813825211341897,0.591444737290011
43,863,7295,"q",0,2557,4,2.5,0.852888821486308,-0.810498343693718
44,863,7291,"p",1,1063,4.5,1.5,1.26956732969336,-1.74512706434954
45,863,7300,"q",0,1013,1.5,4,-1.23050371954895,0.591444737290011
46,863,7304,"q",0,1414,2,3,-0.813825211341897,-0.343183983365809
47,863,7297,"p",1,1469,4,3.5,0.852888821486308,0.124130376962101
48,863,7293,"q",0,2093,4,3.5,0.852888821486308,0.124130376962101
49,863,7309,"p",1,2502,3.5,3.5,0.436210313279257,0.124130376962101
50,863,7319,"p",1,7438,4.5,3.5,1.26956732969336,0.124130376962101
51,863,7314,"q",0,2169,1,5,-1.647182227756,1.52607345794583
52,863,7320,"p",1,2043,2,5,-0.813825211341897,1.52607345794583
53,863,7317,"p",1,1093,2,5,-0.813825211341897,1.52607345794583
54,863,7313,"p",1,1184,3.5,2.5,0.436210313279257,-0.810498343693718
55,863,7307,"q",0,2251,1.5,3.5,-1.23050371954895,0.124130376962101
56,863,7318,"p",1,1176,5,1.5,1.68624583790041,-1.74512706434954
57,863,7306,"p",1,1022,1.5,5,-1.23050371954895,1.52607345794583
58,863,7312,"q",0,1040,1.5,3.5,-1.23050371954895,0.124130376962101
59,863,7308,"p",1,1459,4,3.5,0.852888821486308,0.124130376962101
60,863,7311,"q",0,838,2,3,-0.813825211341897,-0.343183983365809
61,863,7315,"q",0,1134,5,2.5,1.68624583790041,-0.810498343693718
62,863,7316,"q",0,2030,2,3,-0.813825211341897,-0.343183983365809
63,863,7310,"p",1,933,4,4.5,0.852888821486308,1.05875909761792
64,863,7305,"p",1,851,4.5,1.5,1.26956732969336,-1.74512706434954
1,865,7272,"p",1,6384,2,4,-0.813825211341897,0.591444737290011
2,865,7261,"p",1,1616,2.5,5,-0.397146703134846,1.52607345794583
3,865,7265,"p",1,3119,2.5,4.5,-0.397146703134846,1.05875909761792
4,865,7263,"p",1,1629,4,4,0.852888821486308,0.591444737290011
5,865,7269,"q",0,3933,4,3.5,0.852888821486308,0.124130376962101
6,865,7270,"q",0,1649,1.5,4.5,-1.23050371954895,1.05875909761792
7,865,7271,"p",1,1740,5,1,1.68624583790041,-2.21244142467745
8,865,7262,"q",0,1251,1,5,-1.647182227756,1.52607345794583
9,865,7260,"p",1,2564,3.5,1.5,0.436210313279257,-1.74512706434954
10,865,7257,"q",0,4204,2,4,-0.813825211341897,0.591444737290011
11,865,7264,"p",1,1811,2,4,-0.813825211341897,0.591444737290011
12,865,7266,"q",0,2891,4.5,1.5,1.26956732969336,-1.74512706434954
13,865,7267,"p",1,2391,2.5,4,-0.397146703134846,0.591444737290011
14,865,7268,"p",1,1458,3.5,4,0.436210313279257,0.591444737290011
15,865,7259,"q",0,2676,3.5,3,0.436210313279257,-0.343183983365809
16,865,7258,"p",1,2398,4.5,1.5,1.26956732969336,-1.74512706434954
17,865,7278,"q",0,1735,2,4,-0.813825211341897,0.591444737290011
18,865,7287,"p",1,6569,4,2,0.852888821486308,-1.27781270402163
19,865,7275,"p",1,1115,4.5,3,1.26956732969336,-0.343183983365809
20,865,7279,"p",1,1281,3,4,0.0195318050722055,0.591444737290011
21,865,7276,"p",1,1523,3,2.5,0.0195318050722055,-0.810498343693718
22,865,7274,"p",1,846,2,4,-0.813825211341897,0.591444737290011
23,865,7282,"q",0,1200,4.5,2,1.26956732969336,-1.27781270402163
24,865,7286,"p",1,1341,2,4,-0.813825211341897,0.591444737290011
25,865,7281,"q",0,1384,1.5,3,-1.23050371954895,-0.343183983365809
26,865,7288,"p",1,886,2,3,-0.813825211341897,-0.343183983365809
27,865,7277,"q",0,1973,1,5,-1.647182227756,1.52607345794583
28,865,7273,"q",0,1763,2,4,-0.813825211341897,0.591444737290011
29,865,7280,"q",0,1330,4.5,2,1.26956732969336,-1.27781270402163
30,865,7283,"q",0,3078,4,3.5,0.852888821486308,0.124130376962101
31,865,7284,"p",1,1437,4.5,4,1.26956732969336,0.591444737290011
32,865,7285,"p",1,1242,3,4,0.0195318050722055,0.591444737290011
33,865,7289,"p",1,964,3,2.5,0.0195318050722055,-0.810498343693718
34,865,7295,"q",0,1396,4,2.5,0.852888821486308,-0.810498343693718
35,865,7290,"p",1,2370,2,4,-0.813825211341897,0.591444737290011
36,865,7299,"p",1,1519,4.5,2,1.26956732969336,-1.27781270402163
37,865,7303,"p",1,5364,3.5,4,0.436210313279257,0.591444737290011
38,865,7297,"q",0,1565,4,3.5,0.852888821486308,0.124130376962101
39,865,7300,"q",0,1477,1.5,4,-1.23050371954895,0.591444737290011
40,865,7293,"p",1,1160,4,3.5,0.852888821486308,0.124130376962101
41,865,7302,"p",1,970,2,4,-0.813825211341897,0.591444737290011
42,865,7298,"q",0,3036,2,4,-0.813825211341897,0.591444737290011
43,865,7291,"q",0,2025,4.5,1.5,1.26956732969336,-1.74512706434954
44,865,7304,"q",0,1265,2,3,-0.813825211341897,-0.343183983365809
45,865,7292,"q",0,1218,1.5,3.5,-1.23050371954895,0.124130376962101
46,865,7294,"p",1,2605,2,3.5,-0.813825211341897,0.124130376962101
47,865,7301,"p",1,2224,3.5,3.5,0.436210313279257,0.124130376962101
48,865,7296,"p",1,1187,3,1.5,0.0195318050722055,-1.74512706434954
49,865,7314,"q",0,1656,1,5,-1.647182227756,1.52607345794583
50,865,7315,"q",0,1470,5,2.5,1.68624583790041,-0.810498343693718
51,865,7308,"p",1,1317,4,3.5,0.852888821486308,0.124130376962101
52,865,7305,"p",1,2548,4.5,1.5,1.26956732969336,-1.74512706434954
53,865,7317,"p",1,902,2,5,-0.813825211341897,1.52607345794583
54,865,7306,"p",1,875,1.5,5,-1.23050371954895,1.52607345794583
55,865,7312,"q",0,1550,1.5,3.5,-1.23050371954895,0.124130376962101
56,865,7307,"p",1,1443,1.5,3.5,-1.23050371954895,0.124130376962101
57,865,7318,"q",0,2374,5,1.5,1.68624583790041,-1.74512706434954
58,865,7313,"q",0,5859,3.5,2.5,0.436210313279257,-0.810498343693718
59,865,7309,"p",1,1156,3.5,3.5,0.436210313279257,0.124130376962101
60,865,7320,"p",1,804,2,5,-0.813825211341897,1.52607345794583
61,865,7311,"q",0,1589,2,3,-0.813825211341897,-0.343183983365809
62,865,7319,"p",1,1870,4.5,3.5,1.26956732969336,0.124130376962101
63,865,7310,"p",1,1807,4,4.5,0.852888821486308,1.05875909761792
64,865,7316,"p",1,1076,2,3,-0.813825211341897,-0.343183983365809
1,871,7261,"q",0,8514,2.5,5,-0.397146703134846,1.52607345794583
2,871,7267,"q",0,6353,2.5,4,-0.397146703134846,0.591444737290011
3,871,7264,"q",0,3123,2,4,-0.813825211341897,0.591444737290011
4,871,7259,"p",1,2259,3.5,3,0.436210313279257,-0.343183983365809
5,871,7258,"p",1,3285,4.5,1.5,1.26956732969336,-1.74512706434954
6,871,7265,"q",0,1282,2.5,4.5,-0.397146703134846,1.05875909761792
7,871,7272,"q",0,3227,2,4,-0.813825211341897,0.591444737290011
8,871,7257,"q",0,4420,2,4,-0.813825211341897,0.591444737290011
9,871,7269,"p",1,2162,4,3.5,0.852888821486308,0.124130376962101
10,871,7263,"p",1,2768,4,4,0.852888821486308,0.591444737290011
11,871,7271,"p",1,1447,5,1,1.68624583790041,-2.21244142467745
12,871,7268,"p",1,3549,3.5,4,0.436210313279257,0.591444737290011
13,871,7266,"q",0,2658,4.5,1.5,1.26956732969336,-1.74512706434954
14,871,7260,"p",1,2559,3.5,1.5,0.436210313279257,-1.74512706434954
15,871,7262,"q",0,880,1,5,-1.647182227756,1.52607345794583
16,871,7287,"p",1,2450,4,2,0.852888821486308,-1.27781270402163
17,871,7286,"p",1,1791,2,4,-0.813825211341897,0.591444737290011
18,871,7276,"p",1,1427,3,2.5,0.0195318050722055,-0.810498343693718
19,871,7288,"q",0,1753,2,3,-0.813825211341897,-0.343183983365809
20,871,7275,"p",1,1649,4.5,3,1.26956732969336,-0.343183983365809
21,871,7279,"q",0,1820,3,4,0.0195318050722055,0.591444737290011
22,871,7278,"q",0,3196,2,4,-0.813825211341897,0.591444737290011
23,871,7280,"p",1,1673,4.5,2,1.26956732969336,-1.27781270402163
24,871,7274,"q",0,1645,2,4,-0.813825211341897,0.591444737290011
25,871,7281,"q",0,2907,1.5,3,-1.23050371954895,-0.343183983365809
26,871,7285,"p",1,1526,3,4,0.0195318050722055,0.591444737290011
27,871,7277,"q",0,2205,1,5,-1.647182227756,1.52607345794583
28,871,7284,"p",1,1696,4.5,4,1.26956732969336,0.591444737290011
29,871,7282,"p",1,1396,4.5,2,1.26956732969336,-1.27781270402163
30,871,7273,"q",0,1702,2,4,-0.813825211341897,0.591444737290011
31,871,7283,"p",1,2168,4,3.5,0.852888821486308,0.124130376962101
32,871,7302,"p",1,1859,2,4,-0.813825211341897,0.591444737290011
33,871,7292,"p",1,1911,1.5,3.5,-1.23050371954895,0.124130376962101
34,871,7293,"q",0,1651,4,3.5,0.852888821486308,0.124130376962101
35,871,7301,"p",1,2336,3.5,3.5,0.436210313279257,0.124130376962101
36,871,7294,"q",0,1182,2,3.5,-0.813825211341897,0.124130376962101
37,871,7297,"p",1,2381,4,3.5,0.852888821486308,0.124130376962101
38,871,7295,"q",0,1404,4,2.5,0.852888821486308,-0.810498343693718
39,871,7298,"q",0,766,2,4,-0.813825211341897,0.591444737290011
40,871,7291,"p",1,1248,4.5,1.5,1.26956732969336,-1.74512706434954
41,871,7299,"p",1,1280,4.5,2,1.26956732969336,-1.27781270402163
42,871,7304,"q",0,3219,2,3,-0.813825211341897,-0.343183983365809
43,871,7289,"q",0,1451,3,2.5,0.0195318050722055,-0.810498343693718
44,871,7296,"p",1,1202,3,1.5,0.0195318050722055,-1.74512706434954
45,871,7300,"q",0,1165,1.5,4,-1.23050371954895,0.591444737290011
46,871,7290,"q",0,900,2,4,-0.813825211341897,0.591444737290011
47,871,7303,"q",0,1033,3.5,4,0.436210313279257,0.591444737290011
48,871,7320,"p",1,4887,2,5,-0.813825211341897,1.52607345794583
49,871,7313,"p",1,1613,3.5,2.5,0.436210313279257,-0.810498343693718
50,871,7309,"q",0,1551,3.5,3.5,0.436210313279257,0.124130376962101
51,871,7311,"q",0,1229,2,3,-0.813825211341897,-0.343183983365809
52,871,7315,"p",1,986,5,2.5,1.68624583790041,-0.810498343693718
53,871,7314,"q",0,1344,1,5,-1.647182227756,1.52607345794583
54,871,7308,"p",1,1420,4,3.5,0.852888821486308,0.124130376962101
55,871,7318,"p",1,1367,5,1.5,1.68624583790041,-1.74512706434954
56,871,7305,"q",0,1561,4.5,1.5,1.26956732969336,-1.74512706434954
57,871,7319,"q",0,2543,4.5,3.5,1.26956732969336,0.124130376962101
58,871,7317,"q",0,1563,2,5,-0.813825211341897,1.52607345794583
59,871,7307,"q",0,1550,1.5,3.5,-1.23050371954895,0.124130376962101
60,871,7306,"q",0,1331,1.5,5,-1.23050371954895,1.52607345794583
61,871,7316,"q",0,983,2,3,-0.813825211341897,-0.343183983365809
62,871,7310,"p",1,1361,4,4.5,0.852888821486308,1.05875909761792
63,871,7312,"q",0,838,1.5,3.5,-1.23050371954895,0.124130376962101
1,874,7261,"q",1,5665,2.5,5,-0.397146703134846,1.52607345794583
2,874,7269,"q",1,3525,4,3.5,0.852888821486308,0.124130376962101
3,874,7272,"p",0,1462,2,4,-0.813825211341897,0.591444737290011
4,874,7268,"q",1,3325,3.5,4,0.436210313279257,0.591444737290011
5,874,7262,"q",1,4940,1,5,-1.647182227756,1.52607345794583
6,874,7258,"q",1,2386,4.5,1.5,1.26956732969336,-1.74512706434954
7,874,7260,"q",1,1175,3.5,1.5,0.436210313279257,-1.74512706434954
8,874,7265,"p",0,863,2.5,4.5,-0.397146703134846,1.05875909761792
9,874,7271,"p",0,813,5,1,1.68624583790041,-2.21244142467745
10,874,7267,"p",0,1315,2.5,4,-0.397146703134846,0.591444737290011
11,874,7257,"p",0,1933,2,4,-0.813825211341897,0.591444737290011
12,874,7266,"q",1,1933,4.5,1.5,1.26956732969336,-1.74512706434954
13,874,7263,"p",0,2897,4,4,0.852888821486308,0.591444737290011
14,874,7259,"p",0,1014,3.5,3,0.436210313279257,-0.343183983365809
15,874,7264,"p",0,894,2,4,-0.813825211341897,0.591444737290011
16,874,7270,"p",0,950,1.5,4.5,-1.23050371954895,1.05875909761792
17,874,7288,"q",1,1360,2,3,-0.813825211341897,-0.343183983365809
18,874,7284,"q",1,1707,4.5,4,1.26956732969336,0.591444737290011
19,874,7286,"p",0,946,2,4,-0.813825211341897,0.591444737290011
20,874,7278,"p",0,2108,2,4,-0.813825211341897,0.591444737290011
21,874,7276,"q",1,1417,3,2.5,0.0195318050722055,-0.810498343693718
22,874,7285,"q",1,1214,3,4,0.0195318050722055,0.591444737290011
23,874,7281,"p",0,4009,1.5,3,-1.23050371954895,-0.343183983365809
24,874,7273,"q",1,1458,2,4,-0.813825211341897,0.591444737290011
25,874,7280,"p",0,1278,4.5,2,1.26956732969336,-1.27781270402163
26,874,7279,"q",1,1254,3,4,0.0195318050722055,0.591444737290011
27,874,7282,"q",1,3038,4.5,2,1.26956732969336,-1.27781270402163
28,874,7274,"p",0,1491,2,4,-0.813825211341897,0.591444737290011
29,874,7277,"p",0,1570,1,5,-1.647182227756,1.52607345794583
30,874,7287,"p",0,2692,4,2,0.852888821486308,-1.27781270402163
31,874,7275,"p",0,1218,4.5,3,1.26956732969336,-0.343183983365809
32,874,7283,"q",1,3240,4,3.5,0.852888821486308,0.124130376962101
33,874,7302,"p",0,1455,2,4,-0.813825211341897,0.591444737290011
34,874,7290,"p",0,1258,2,4,-0.813825211341897,0.591444737290011
35,874,7301,"q",1,1588,3.5,3.5,0.436210313279257,0.124130376962101
36,874,7292,"p",0,1843,1.5,3.5,-1.23050371954895,0.124130376962101
37,874,7304,"p",0,863,2,3,-0.813825211341897,-0.343183983365809
38,874,7303,"p",0,1339,3.5,4,0.436210313279257,0.591444737290011
39,874,7293,"p",0,999,4,3.5,0.852888821486308,0.124130376962101
40,874,7294,"q",1,2118,2,3.5,-0.813825211341897,0.124130376962101
41,874,7300,"q",1,2192,1.5,4,-1.23050371954895,0.591444737290011
42,874,7295,"p",0,1510,4,2.5,0.852888821486308,-0.810498343693718
43,874,7298,"p",0,999,2,4,-0.813825211341897,0.591444737290011
44,874,7291,"p",0,3531,4.5,1.5,1.26956732969336,-1.74512706434954
45,874,7297,"p",0,1688,4,3.5,0.852888821486308,0.124130376962101
46,874,7289,"p",0,2880,3,2.5,0.0195318050722055,-0.810498343693718
47,874,7299,"p",0,1140,4.5,2,1.26956732969336,-1.27781270402163
48,874,7296,"p",0,959,3,1.5,0.0195318050722055,-1.74512706434954
49,874,7307,"q",1,4737,1.5,3.5,-1.23050371954895,0.124130376962101
50,874,7305,"q",1,1825,4.5,1.5,1.26956732969336,-1.74512706434954
51,874,7313,"p",0,784,3.5,2.5,0.436210313279257,-0.810498343693718
52,874,7319,"p",0,1035,4.5,3.5,1.26956732969336,0.124130376962101
53,874,7311,"p",0,1902,2,3,-0.813825211341897,-0.343183983365809
54,874,7317,"p",0,749,2,5,-0.813825211341897,1.52607345794583
55,874,7314,"p",0,1287,1,5,-1.647182227756,1.52607345794583
56,874,7310,"p",0,1523,4,4.5,0.852888821486308,1.05875909761792
57,874,7309,"q",1,1429,3.5,3.5,0.436210313279257,0.124130376962101
58,874,7320,"p",0,943,2,5,-0.813825211341897,1.52607345794583
59,874,7316,"p",0,733,2,3,-0.813825211341897,-0.343183983365809
60,874,7318,"q",1,1296,5,1.5,1.68624583790041,-1.74512706434954
61,874,7308,"q",1,5728,4,3.5,0.852888821486308,0.124130376962101
62,874,7315,"p",0,745,5,2.5,1.68624583790041,-0.810498343693718
63,874,7312,"p",0,2155,1.5,3.5,-1.23050371954895,0.124130376962101
64,874,7306,"p",0,1572,1.5,5,-1.23050371954895,1.52607345794583
1,877,7259,"p",1,3290,3.5,3,0.436210313279257,-0.343183983365809
2,877,7261,"p",1,1660,2.5,5,-0.397146703134846,1.52607345794583
3,877,7262,"p",1,839,1,5,-1.647182227756,1.52607345794583
4,877,7265,"q",0,1372,2.5,4.5,-0.397146703134846,1.05875909761792
5,877,7264,"q",0,2089,2,4,-0.813825211341897,0.591444737290011
6,877,7272,"p",1,1714,2,4,-0.813825211341897,0.591444737290011
7,877,7260,"p",1,2249,3.5,1.5,0.436210313279257,-1.74512706434954
8,877,7266,"q",0,1344,4.5,1.5,1.26956732969336,-1.74512706434954
9,877,7269,"p",1,1525,4,3.5,0.852888821486308,0.124130376962101
10,877,7257,"p",1,2901,2,4,-0.813825211341897,0.591444737290011
11,877,7268,"p",1,1321,3.5,4,0.436210313279257,0.591444737290011
12,877,7267,"p",1,1549,2.5,4,-0.397146703134846,0.591444737290011
13,877,7270,"q",0,3216,1.5,4.5,-1.23050371954895,1.05875909761792
14,877,7258,"q",0,1159,4.5,1.5,1.26956732969336,-1.74512706434954
15,877,7263,"p",1,1557,4,4,0.852888821486308,0.591444737290011
16,877,7271,"p",1,1751,5,1,1.68624583790041,-2.21244142467745
17,877,7277,"q",0,2360,1,5,-1.647182227756,1.52607345794583
18,877,7278,"q",0,2789,2,4,-0.813825211341897,0.591444737290011
19,877,7283,"p",1,1691,4,3.5,0.852888821486308,0.124130376962101
20,877,7282,"p",1,1901,4.5,2,1.26956732969336,-1.27781270402163
21,877,7276,"p",1,2245,3,2.5,0.0195318050722055,-0.810498343693718
22,877,7280,"p",1,1451,4.5,2,1.26956732969336,-1.27781270402163
23,877,7287,"p",1,1309,4,2,0.852888821486308,-1.27781270402163
24,877,7279,"q",0,1817,3,4,0.0195318050722055,0.591444737290011
25,877,7284,"p",1,1479,4.5,4,1.26956732969336,0.591444737290011
26,877,7281,"q",0,1978,1.5,3,-1.23050371954895,-0.343183983365809
27,877,7273,"p",1,3181,2,4,-0.813825211341897,0.591444737290011
28,877,7288,"p",1,947,2,3,-0.813825211341897,-0.343183983365809
29,877,7275,"p",1,1545,4.5,3,1.26956732969336,-0.343183983365809
30,877,7286,"p",1,923,2,4,-0.813825211341897,0.591444737290011
31,877,7274,"q",0,2000,2,4,-0.813825211341897,0.591444737290011
32,877,7285,"p",1,1180,3,4,0.0195318050722055,0.591444737290011
33,877,7296,"p",1,1611,3,1.5,0.0195318050722055,-1.74512706434954
34,877,7298,"q",0,1087,2,4,-0.813825211341897,0.591444737290011
35,877,7294,"q",0,2370,2,3.5,-0.813825211341897,0.124130376962101
36,877,7289,"q",0,1657,3,2.5,0.0195318050722055,-0.810498343693718
37,877,7304,"p",1,1655,2,3,-0.813825211341897,-0.343183983365809
38,877,7293,"q",0,1745,4,3.5,0.852888821486308,0.124130376962101
39,877,7295,"p",1,1242,4,2.5,0.852888821486308,-0.810498343693718
40,877,7302,"p",1,1102,2,4,-0.813825211341897,0.591444737290011
41,877,7303,"p",1,1094,3.5,4,0.436210313279257,0.591444737290011
42,877,7299,"p",1,90,4.5,2,1.26956732969336,-1.27781270402163
43,877,7292,"p",1,1539,1.5,3.5,-1.23050371954895,0.124130376962101
44,877,7300,"p",1,1639,1.5,4,-1.23050371954895,0.591444737290011
45,877,7290,"p",1,889,2,4,-0.813825211341897,0.591444737290011
46,877,7291,"p",1,2604,4.5,1.5,1.26956732969336,-1.74512706434954
47,877,7301,"q",0,2073,3.5,3.5,0.436210313279257,0.124130376962101
48,877,7306,"q",0,2377,1.5,5,-1.23050371954895,1.52607345794583
49,877,7308,"p",1,1057,4,3.5,0.852888821486308,0.124130376962101
50,877,7317,"q",0,1236,2,5,-0.813825211341897,1.52607345794583
51,877,7309,"p",1,1102,3.5,3.5,0.436210313279257,0.124130376962101
52,877,7319,"p",1,1672,4.5,3.5,1.26956732969336,0.124130376962101
53,877,7316,"q",0,2307,2,3,-0.813825211341897,-0.343183983365809
54,877,7307,"q",0,1895,1.5,3.5,-1.23050371954895,0.124130376962101
55,877,7314,"p",1,1642,1,5,-1.647182227756,1.52607345794583
56,877,7313,"p",1,3211,3.5,2.5,0.436210313279257,-0.810498343693718
57,877,7320,"p",1,1030,2,5,-0.813825211341897,1.52607345794583
58,877,7311,"p",1,1103,2,3,-0.813825211341897,-0.343183983365809
59,877,7305,"p",1,1453,4.5,1.5,1.26956732969336,-1.74512706434954
60,877,7312,"q",0,1267,1.5,3.5,-1.23050371954895,0.124130376962101
61,877,7310,"p",1,1429,4,4.5,0.852888821486308,1.05875909761792
62,877,7318,"q",0,1350,5,1.5,1.68624583790041,-1.74512706434954
63,877,7315,"p",1,1026,5,2.5,1.68624583790041,-0.810498343693718
1,879,7257,"q",0,3542,2,4,-0.813825211341897,0.591444737290011
2,879,7265,"q",0,3251,2.5,4.5,-0.397146703134846,1.05875909761792
3,879,7270,"q",0,1376,1.5,4.5,-1.23050371954895,1.05875909761792
4,879,7266,"p",1,1302,4.5,1.5,1.26956732969336,-1.74512706434954
5,879,7260,"p",1,873,3.5,1.5,0.436210313279257,-1.74512706434954
6,879,7269,"p",1,980,4,3.5,0.852888821486308,0.124130376962101
7,879,7259,"p",1,856,3.5,3,0.436210313279257,-0.343183983365809
8,879,7272,"p",1,994,2,4,-0.813825211341897,0.591444737290011
9,879,7267,"p",1,2995,2.5,4,-0.397146703134846,0.591444737290011
10,879,7263,"p",1,1603,4,4,0.852888821486308,0.591444737290011
11,879,7264,"q",0,1224,2,4,-0.813825211341897,0.591444737290011
12,879,7258,"q",0,1030,4.5,1.5,1.26956732969336,-1.74512706434954
13,879,7261,"p",1,921,2.5,5,-0.397146703134846,1.52607345794583
14,879,7268,"p",1,1593,3.5,4,0.436210313279257,0.591444737290011
15,879,7271,"p",1,1265,5,1,1.68624583790041,-2.21244142467745
16,879,7262,"q",0,1312,1,5,-1.647182227756,1.52607345794583
17,879,7284,"q",0,1548,4.5,4,1.26956732969336,0.591444737290011
18,879,7277,"q",0,1204,1,5,-1.647182227756,1.52607345794583
19,879,7275,"q",0,1867,4.5,3,1.26956732969336,-0.343183983365809
20,879,7286,"p",1,735,2,4,-0.813825211341897,0.591444737290011
21,879,7278,"q",0,1696,2,4,-0.813825211341897,0.591444737290011
22,879,7288,"p",1,1429,2,3,-0.813825211341897,-0.343183983365809
23,879,7279,"p",1,1485,3,4,0.0195318050722055,0.591444737290011
24,879,7280,"q",0,1529,4.5,2,1.26956732969336,-1.27781270402163
25,879,7281,"q",0,1302,1.5,3,-1.23050371954895,-0.343183983365809
26,879,7285,"p",1,2539,3,4,0.0195318050722055,0.591444737290011
27,879,7282,"q",0,1168,4.5,2,1.26956732969336,-1.27781270402163
28,879,7276,"q",0,1179,3,2.5,0.0195318050722055,-0.810498343693718
29,879,7273,"q",0,1546,2,4,-0.813825211341897,0.591444737290011
30,879,7274,"p",1,679,2,4,-0.813825211341897,0.591444737290011
31,879,7283,"q",0,1673,4,3.5,0.852888821486308,0.124130376962101
32,879,7287,"q",0,1175,4,2,0.852888821486308,-1.27781270402163
33,879,7299,"q",0,3504,4.5,2,1.26956732969336,-1.27781270402163
34,879,7294,"p",1,2576,2,3.5,-0.813825211341897,0.124130376962101
35,879,7300,"q",0,1152,1.5,4,-1.23050371954895,0.591444737290011
36,879,7297,"q",0,1642,4,3.5,0.852888821486308,0.124130376962101
37,879,7304,"q",0,1386,2,3,-0.813825211341897,-0.343183983365809
38,879,7298,"q",0,769,2,4,-0.813825211341897,0.591444737290011
39,879,7291,"p",1,1511,4.5,1.5,1.26956732969336,-1.74512706434954
40,879,7296,"p",1,1104,3,1.5,0.0195318050722055,-1.74512706434954
41,879,7301,"q",0,841,3.5,3.5,0.436210313279257,0.124130376962101
42,879,7295,"p",1,1210,4,2.5,0.852888821486308,-0.810498343693718
43,879,7303,"p",1,1405,3.5,4,0.436210313279257,0.591444737290011
44,879,7293,"p",1,1061,4,3.5,0.852888821486308,0.124130376962101
45,879,7302,"p",1,1318,2,4,-0.813825211341897,0.591444737290011
46,879,7289,"q",0,1172,3,2.5,0.0195318050722055,-0.810498343693718
47,879,7290,"q",0,450,2,4,-0.813825211341897,0.591444737290011
48,879,7292,"q",0,470,1.5,3.5,-1.23050371954895,0.124130376962101
49,879,7309,"p",1,1685,3.5,3.5,0.436210313279257,0.124130376962101
50,879,7307,"q",0,1513,1.5,3.5,-1.23050371954895,0.124130376962101
51,879,7317,"q",0,2487,2,5,-0.813825211341897,1.52607345794583
52,879,7308,"q",0,815,4,3.5,0.852888821486308,0.124130376962101
53,879,7310,"q",0,1595,4,4.5,0.852888821486308,1.05875909761792
54,879,7312,"q",0,1091,1.5,3.5,-1.23050371954895,0.124130376962101
55,879,7311,"q",0,1042,2,3,-0.813825211341897,-0.343183983365809
56,879,7313,"q",0,1169,3.5,2.5,0.436210313279257,-0.810498343693718
57,879,7315,"q",0,871,5,2.5,1.68624583790041,-0.810498343693718
58,879,7314,"q",0,819,1,5,-1.647182227756,1.52607345794583
59,879,7305,"q",0,1305,4.5,1.5,1.26956732969336,-1.74512706434954
60,879,7319,"p",1,836,4.5,3.5,1.26956732969336,0.124130376962101
61,879,7320,"p",1,1002,2,5,-0.813825211341897,1.52607345794583
62,879,7316,"q",0,642,2,3,-0.813825211341897,-0.343183983365809
63,879,7318,"p",1,643,5,1.5,1.68624583790041,-1.74512706434954
64,879,7306,"q",0,427,1.5,5,-1.23050371954895,1.52607345794583
1,887,7257,"p",1,5613,2,4,-0.813825211341897,0.591444737290011
2,887,7265,"q",0,3526,2.5,4.5,-0.397146703134846,1.05875909761792
3,887,7272,"p",1,1416,2,4,-0.813825211341897,0.591444737290011
4,887,7270,"q",0,1332,1.5,4.5,-1.23050371954895,1.05875909761792
5,887,7268,"p",1,1172,3.5,4,0.436210313279257,0.591444737290011
6,887,7263,"p",1,1677,4,4,0.852888821486308,0.591444737290011
7,887,7269,"p",1,2187,4,3.5,0.852888821486308,0.124130376962101
8,887,7259,"p",1,3289,3.5,3,0.436210313279257,-0.343183983365809
9,887,7271,"p",1,1205,5,1,1.68624583790041,-2.21244142467745
10,887,7258,"p",1,1682,4.5,1.5,1.26956732969336,-1.74512706434954
11,887,7267,"p",1,2705,2.5,4,-0.397146703134846,0.591444737290011
12,887,7266,"p",1,1659,4.5,1.5,1.26956732969336,-1.74512706434954
13,887,7264,"q",0,1892,2,4,-0.813825211341897,0.591444737290011
14,887,7261,"q",0,2694,2.5,5,-0.397146703134846,1.52607345794583
15,887,7260,"p",1,1564,3.5,1.5,0.436210313279257,-1.74512706434954
16,887,7262,"q",0,1021,1,5,-1.647182227756,1.52607345794583
17,887,7288,"p",1,2066,2,3,-0.813825211341897,-0.343183983365809
18,887,7282,"q",0,1683,4.5,2,1.26956732969336,-1.27781270402163
19,887,7280,"p",1,2116,4.5,2,1.26956732969336,-1.27781270402163
20,887,7285,"p",1,1285,3,4,0.0195318050722055,0.591444737290011
21,887,7273,"q",0,1120,2,4,-0.813825211341897,0.591444737290011
22,887,7278,"q",0,1308,2,4,-0.813825211341897,0.591444737290011
23,887,7275,"p",1,1643,4.5,3,1.26956732969336,-0.343183983365809
24,887,7283,"p",1,1880,4,3.5,0.852888821486308,0.124130376962101
25,887,7286,"q",0,327,2,4,-0.813825211341897,0.591444737290011
26,887,7281,"p",1,296,1.5,3,-1.23050371954895,-0.343183983365809
27,887,7287,"p",1,377,4,2,0.852888821486308,-1.27781270402163
28,887,7284,"p",1,294,4.5,4,1.26956732969336,0.591444737290011
29,887,7277,"p",1,295,1,5,-1.647182227756,1.52607345794583
30,887,7274,"p",1,278,2,4,-0.813825211341897,0.591444737290011
31,887,7279,"q",0,385,3,4,0.0195318050722055,0.591444737290011
32,887,7276,"q",0,327,3,2.5,0.0195318050722055,-0.810498343693718
33,887,7293,"q",0,623,4,3.5,0.852888821486308,0.124130376962101
34,887,7295,"p",1,290,4,2.5,0.852888821486308,-0.810498343693718
35,887,7296,"q",0,451,3,1.5,0.0195318050722055,-1.74512706434954
36,887,7289,"p",1,290,3,2.5,0.0195318050722055,-0.810498343693718
37,887,7292,"q",0,332,1.5,3.5,-1.23050371954895,0.124130376962101
38,887,7290,"p",1,428,2,4,-0.813825211341897,0.591444737290011
39,887,7298,"p",1,174,2,4,-0.813825211341897,0.591444737290011
40,887,7302,"p",1,301,2,4,-0.813825211341897,0.591444737290011
41,887,7300,"p",1,287,1.5,4,-1.23050371954895,0.591444737290011
42,887,7304,"p",1,36,2,3,-0.813825211341897,-0.343183983365809
43,887,7299,"p",1,260,4.5,2,1.26956732969336,-1.27781270402163
44,887,7301,"p",1,108,3.5,3.5,0.436210313279257,0.124130376962101
45,887,7297,"q",0,345,4,3.5,0.852888821486308,0.124130376962101
46,887,7303,"q",0,277,3.5,4,0.436210313279257,0.591444737290011
47,887,7291,"q",0,483,4.5,1.5,1.26956732969336,-1.74512706434954
48,887,7294,"p",1,320,2,3.5,-0.813825211341897,0.124130376962101
49,887,7309,"p",1,293,3.5,3.5,0.436210313279257,0.124130376962101
50,887,7314,"p",1,308,1,5,-1.647182227756,1.52607345794583
51,887,7310,"q",0,283,4,4.5,0.852888821486308,1.05875909761792
52,887,7317,"q",0,198,2,5,-0.813825211341897,1.52607345794583
53,887,7318,"q",0,257,5,1.5,1.68624583790041,-1.74512706434954
54,887,7311,"p",1,377,2,3,-0.813825211341897,-0.343183983365809
55,887,7316,"p",1,242,2,3,-0.813825211341897,-0.343183983365809
56,887,7313,"p",1,280,3.5,2.5,0.436210313279257,-0.810498343693718
57,887,7320,"p",1,60,2,5,-0.813825211341897,1.52607345794583
58,887,7312,"p",1,422,1.5,3.5,-1.23050371954895,0.124130376962101
59,887,7315,"p",1,321,5,2.5,1.68624583790041,-0.810498343693718
60,887,7308,"p",1,326,4,3.5,0.852888821486308,0.124130376962101
61,887,7307,"q",0,736,1.5,3.5,-1.23050371954895,0.124130376962101
62,887,7305,"q",0,320,4.5,1.5,1.26956732969336,-1.74512706434954
63,887,7319,"q",0,309,4.5,3.5,1.26956732969336,0.124130376962101
64,887,7306,"q",0,326,1.5,5,-1.23050371954895,1.52607345794583
1,889,7259,"p",1,7524,3.5,3,0.436210313279257,-0.343183983365809
2,889,7269,"p",1,1427,4,3.5,0.852888821486308,0.124130376962101
3,889,7258,"p",1,1275,4.5,1.5,1.26956732969336,-1.74512706434954
4,889,7270,"q",0,3734,1.5,4.5,-1.23050371954895,1.05875909761792
5,889,7263,"q",0,3826,4,4,0.852888821486308,0.591444737290011
6,889,7264,"p",1,1124,2,4,-0.813825211341897,0.591444737290011
7,889,7272,"q",0,2856,2,4,-0.813825211341897,0.591444737290011
8,889,7262,"q",0,1212,1,5,-1.647182227756,1.52607345794583
9,889,7267,"q",0,2739,2.5,4,-0.397146703134846,0.591444737290011
10,889,7266,"q",0,1436,4.5,1.5,1.26956732969336,-1.74512706434954
11,889,7261,"p",1,1806,2.5,5,-0.397146703134846,1.52607345794583
12,889,7260,"p",1,1809,3.5,1.5,0.436210313279257,-1.74512706434954
13,889,7268,"p",1,986,3.5,4,0.436210313279257,0.591444737290011
14,889,7257,"q",0,1995,2,4,-0.813825211341897,0.591444737290011
15,889,7265,"p",1,1284,2.5,4.5,-0.397146703134846,1.05875909761792
16,889,7271,"p",1,1254,5,1,1.68624583790041,-2.21244142467745
17,889,7282,"p",1,1586,4.5,2,1.26956732969336,-1.27781270402163
18,889,7279,"q",0,8102,3,4,0.0195318050722055,0.591444737290011
19,889,7277,"q",0,1441,1,5,-1.647182227756,1.52607345794583
20,889,7278,"q",0,2085,2,4,-0.813825211341897,0.591444737290011
21,889,7288,"p",1,1942,2,3,-0.813825211341897,-0.343183983365809
22,889,7273,"q",0,1412,2,4,-0.813825211341897,0.591444737290011
23,889,7274,"p",1,754,2,4,-0.813825211341897,0.591444737290011
24,889,7275,"p",1,1259,4.5,3,1.26956732969336,-0.343183983365809
25,889,7284,"p",1,1324,4.5,4,1.26956732969336,0.591444737290011
26,889,7286,"p",1,741,2,4,-0.813825211341897,0.591444737290011
27,889,7281,"q",0,2195,1.5,3,-1.23050371954895,-0.343183983365809
28,889,7276,"p",1,1868,3,2.5,0.0195318050722055,-0.810498343693718
29,889,7287,"p",1,865,4,2,0.852888821486308,-1.27781270402163
30,889,7285,"p",1,1173,3,4,0.0195318050722055,0.591444737290011
31,889,7280,"q",0,2553,4.5,2,1.26956732969336,-1.27781270402163
32,889,7289,"q",0,1909,3,2.5,0.0195318050722055,-0.810498343693718
33,889,7299,"q",0,1457,4.5,2,1.26956732969336,-1.27781270402163
34,889,7303,"q",0,1028,3.5,4,0.436210313279257,0.591444737290011
35,889,7293,"q",0,1939,4,3.5,0.852888821486308,0.124130376962101
36,889,7297,"q",0,3641,4,3.5,0.852888821486308,0.124130376962101
37,889,7290,"q",0,1688,2,4,-0.813825211341897,0.591444737290011
38,889,7300,"q",0,1197,1.5,4,-1.23050371954895,0.591444737290011
39,889,7291,"q",0,1033,4.5,1.5,1.26956732969336,-1.74512706434954
40,889,7294,"q",0,1238,2,3.5,-0.813825211341897,0.124130376962101
41,889,7295,"q",0,1304,4,2.5,0.852888821486308,-0.810498343693718
42,889,7298,"p",1,1226,2,4,-0.813825211341897,0.591444737290011
43,889,7302,"q",0,1003,2,4,-0.813825211341897,0.591444737290011
44,889,7304,"q",0,1574,2,3,-0.813825211341897,-0.343183983365809
45,889,7296,"q",0,745,3,1.5,0.0195318050722055,-1.74512706434954
46,889,7301,"p",1,1059,3.5,3.5,0.436210313279257,0.124130376962101
47,889,7292,"q",0,986,1.5,3.5,-1.23050371954895,0.124130376962101
48,889,7310,"q",0,1598,4,4.5,0.852888821486308,1.05875909761792
49,889,7316,"q",0,937,2,3,-0.813825211341897,-0.343183983365809
50,889,7320,"q",0,719,2,5,-0.813825211341897,1.52607345794583
51,889,7319,"q",0,1735,4.5,3.5,1.26956732969336,0.124130376962101
52,889,7306,"q",0,1324,1.5,5,-1.23050371954895,1.52607345794583
53,889,7315,"p",1,967,5,2.5,1.68624583790041,-0.810498343693718
54,889,7308,"p",1,892,4,3.5,0.852888821486308,0.124130376962101
55,889,7305,"p",1,1064,4.5,1.5,1.26956732969336,-1.74512706434954
56,889,7309,"p",1,2512,3.5,3.5,0.436210313279257,0.124130376962101
57,889,7307,"p",1,1932,1.5,3.5,-1.23050371954895,0.124130376962101
58,889,7313,"q",0,1824,3.5,2.5,0.436210313279257,-0.810498343693718
59,889,7312,"p",1,906,1.5,3.5,-1.23050371954895,0.124130376962101
60,889,7318,"p",1,469,5,1.5,1.68624583790041,-1.74512706434954
61,889,7311,"p",1,453,2,3,-0.813825211341897,-0.343183983365809
62,889,7317,"p",1,960,2,5,-0.813825211341897,1.52607345794583
63,889,7314,"q",0,1568,1,5,-1.647182227756,1.52607345794583
1,890,7262,"p",0,1984,1,5,-1.647182227756,1.52607345794583
2,890,7263,"q",1,1605,4,4,0.852888821486308,0.591444737290011
3,890,7260,"q",1,1880,3.5,1.5,0.436210313279257,-1.74512706434954
4,890,7257,"q",1,2299,2,4,-0.813825211341897,0.591444737290011
5,890,7265,"p",0,2771,2.5,4.5,-0.397146703134846,1.05875909761792
6,890,7266,"p",0,3570,4.5,1.5,1.26956732969336,-1.74512706434954
7,890,7272,"p",0,2277,2,4,-0.813825211341897,0.591444737290011
8,890,7268,"q",1,1838,3.5,4,0.436210313279257,0.591444737290011
9,890,7269,"q",1,2484,4,3.5,0.852888821486308,0.124130376962101
10,890,7264,"p",0,2731,2,4,-0.813825211341897,0.591444737290011
11,890,7271,"q",1,1323,5,1,1.68624583790041,-2.21244142467745
12,890,7267,"q",1,2237,2.5,4,-0.397146703134846,0.591444737290011
13,890,7258,"q",1,1749,4.5,1.5,1.26956732969336,-1.74512706434954
14,890,7270,"p",0,1354,1.5,4.5,-1.23050371954895,1.05875909761792
15,890,7259,"q",1,1516,3.5,3,0.436210313279257,-0.343183983365809
16,890,7261,"q",1,2488,2.5,5,-0.397146703134846,1.52607345794583
17,890,7288,"q",1,2482,2,3,-0.813825211341897,-0.343183983365809
18,890,7282,"p",0,2527,4.5,2,1.26956732969336,-1.27781270402163
19,890,7274,"q",1,1119,2,4,-0.813825211341897,0.591444737290011
20,890,7278,"p",0,1675,2,4,-0.813825211341897,0.591444737290011
21,890,7280,"p",0,2598,4.5,2,1.26956732969336,-1.27781270402163
22,890,7287,"q",1,871,4,2,0.852888821486308,-1.27781270402163
23,890,7286,"q",1,727,2,4,-0.813825211341897,0.591444737290011
24,890,7273,"p",0,1284,2,4,-0.813825211341897,0.591444737290011
25,890,7285,"q",1,1235,3,4,0.0195318050722055,0.591444737290011
26,890,7284,"q",1,1780,4.5,4,1.26956732969336,0.591444737290011
27,890,7276,"q",1,1464,3,2.5,0.0195318050722055,-0.810498343693718
28,890,7283,"q",1,2263,4,3.5,0.852888821486308,0.124130376962101
29,890,7277,"p",0,1305,1,5,-1.647182227756,1.52607345794583
30,890,7279,"q",1,2931,3,4,0.0195318050722055,0.591444737290011
31,890,7275,"q",1,3241,4.5,3,1.26956732969336,-0.343183983365809
32,890,7281,"p",0,1488,1.5,3,-1.23050371954895,-0.343183983365809
33,890,7296,"q",1,2088,3,1.5,0.0195318050722055,-1.74512706434954
34,890,7293,"q",1,1703,4,3.5,0.852888821486308,0.124130376962101
35,890,7297,"q",1,1374,4,3.5,0.852888821486308,0.124130376962101
36,890,7298,"p",0,1184,2,4,-0.813825211341897,0.591444737290011
37,890,7301,"p",0,1524,3.5,3.5,0.436210313279257,0.124130376962101
38,890,7290,"p",0,981,2,4,-0.813825211341897,0.591444737290011
39,890,7292,"p",0,1184,1.5,3.5,-1.23050371954895,0.124130376962101
40,890,7302,"q",1,2183,2,4,-0.813825211341897,0.591444737290011
41,890,7294,"p",0,1911,2,3.5,-0.813825211341897,0.124130376962101
42,890,7291,"q",1,1930,4.5,1.5,1.26956732969336,-1.74512706434954
43,890,7295,"q",1,978,4,2.5,0.852888821486308,-0.810498343693718
44,890,7303,"q",1,823,3.5,4,0.436210313279257,0.591444737290011
45,890,7304,"p",0,1014,2,3,-0.813825211341897,-0.343183983365809
46,890,7299,"q",1,1158,4.5,2,1.26956732969336,-1.27781270402163
47,890,7300,"p",0,998,1.5,4,-1.23050371954895,0.591444737290011
48,890,7289,"q",1,997,3,2.5,0.0195318050722055,-0.810498343693718
49,890,7317,"p",0,1889,2,5,-0.813825211341897,1.52607345794583
50,890,7318,"q",1,1304,5,1.5,1.68624583790041,-1.74512706434954
51,890,7320,"p",0,1035,2,5,-0.813825211341897,1.52607345794583
52,890,7310,"p",0,1672,4,4.5,0.852888821486308,1.05875909761792
53,890,7306,"q",1,1039,1.5,5,-1.23050371954895,1.52607345794583
54,890,7315,"q",1,1341,5,2.5,1.68624583790041,-0.810498343693718
55,890,7307,"q",1,886,1.5,3.5,-1.23050371954895,0.124130376962101
56,890,7313,"p",0,1180,3.5,2.5,0.436210313279257,-0.810498343693718
57,890,7311,"q",1,752,2,3,-0.813825211341897,-0.343183983365809
58,890,7308,"q",1,899,4,3.5,0.852888821486308,0.124130376962101
59,890,7316,"p",0,816,2,3,-0.813825211341897,-0.343183983365809
60,890,7309,"q",1,974,3.5,3.5,0.436210313279257,0.124130376962101
61,890,7319,"q",1,3190,4.5,3.5,1.26956732969336,0.124130376962101
62,890,7312,"p",0,939,1.5,3.5,-1.23050371954895,0.124130376962101
63,890,7305,"q",1,1836,4.5,1.5,1.26956732969336,-1.74512706434954
64,890,7314,"p",0,771,1,5,-1.647182227756,1.52607345794583
1,893,7262,"q",0,3193,1,5,-1.647182227756,1.52607345794583
2,893,7258,"p",1,4733,4.5,1.5,1.26956732969336,-1.74512706434954
3,893,7272,"q",0,1845,2,4,-0.813825211341897,0.591444737290011
4,893,7266,"q",0,1494,4.5,1.5,1.26956732969336,-1.74512706434954
5,893,7267,"q",0,2173,2.5,4,-0.397146703134846,0.591444737290011
6,893,7270,"q",0,2037,1.5,4.5,-1.23050371954895,1.05875909761792
7,893,7263,"p",1,1759,4,4,0.852888821486308,0.591444737290011
8,893,7259,"p",1,1541,3.5,3,0.436210313279257,-0.343183983365809
9,893,7257,"p",1,2885,2,4,-0.813825211341897,0.591444737290011
10,893,7261,"p",1,2120,2.5,5,-0.397146703134846,1.52607345794583
11,893,7271,"q",0,679,5,1,1.68624583790041,-2.21244142467745
12,893,7269,"p",1,1823,4,3.5,0.852888821486308,0.124130376962101
13,893,7260,"p",1,1570,3.5,1.5,0.436210313279257,-1.74512706434954
14,893,7268,"q",0,753,3.5,4,0.436210313279257,0.591444737290011
15,893,7265,"q",0,1226,2.5,4.5,-0.397146703134846,1.05875909761792
16,893,7264,"q",0,1125,2,4,-0.813825211341897,0.591444737290011
17,893,7274,"q",0,1398,2,4,-0.813825211341897,0.591444737290011
18,893,7276,"p",1,1288,3,2.5,0.0195318050722055,-0.810498343693718
19,893,7286,"q",0,1031,2,4,-0.813825211341897,0.591444737290011
20,893,7275,"p",1,1920,4.5,3,1.26956732969336,-0.343183983365809
21,893,7273,"q",0,2021,2,4,-0.813825211341897,0.591444737290011
22,893,7280,"p",1,1329,4.5,2,1.26956732969336,-1.27781270402163
23,893,7282,"p",1,827,4.5,2,1.26956732969336,-1.27781270402163
24,893,7288,"q",0,954,2,3,-0.813825211341897,-0.343183983365809
25,893,7279,"p",1,1936,3,4,0.0195318050722055,0.591444737290011
26,893,7281,"q",0,1649,1.5,3,-1.23050371954895,-0.343183983365809
27,893,7285,"p",1,1528,3,4,0.0195318050722055,0.591444737290011
28,893,7278,"q",0,1309,2,4,-0.813825211341897,0.591444737290011
29,893,7277,"q",0,1054,1,5,-1.647182227756,1.52607345794583
30,893,7283,"p",1,1868,4,3.5,0.852888821486308,0.124130376962101
31,893,7287,"p",1,1271,4,2,0.852888821486308,-1.27781270402163
32,893,7284,"q",0,1713,4.5,4,1.26956732969336,0.591444737290011
33,893,7302,"q",0,1472,2,4,-0.813825211341897,0.591444737290011
34,893,7301,"q",0,1054,3.5,3.5,0.436210313279257,0.124130376962101
35,893,7304,"q",0,2931,2,3,-0.813825211341897,-0.343183983365809
36,893,7296,"q",0,953,3,1.5,0.0195318050722055,-1.74512706434954
37,893,7292,"q",0,696,1.5,3.5,-1.23050371954895,0.124130376962101
38,893,7295,"q",0,831,4,2.5,0.852888821486308,-0.810498343693718
39,893,7291,"p",1,1133,4.5,1.5,1.26956732969336,-1.74512706434954
40,893,7298,"q",0,1135,2,4,-0.813825211341897,0.591444737290011
41,893,7293,"q",0,1317,4,3.5,0.852888821486308,0.124130376962101
42,893,7290,"q",0,1001,2,4,-0.813825211341897,0.591444737290011
43,893,7303,"q",0,1978,3.5,4,0.436210313279257,0.591444737290011
44,893,7289,"q",0,2829,3,2.5,0.0195318050722055,-0.810498343693718
45,893,7294,"q",0,2019,2,3.5,-0.813825211341897,0.124130376962101
46,893,7299,"p",1,1744,4.5,2,1.26956732969336,-1.27781270402163
47,893,7300,"q",0,1195,1.5,4,-1.23050371954895,0.591444737290011
48,893,7297,"p",1,1467,4,3.5,0.852888821486308,0.124130376962101
49,893,7317,"q",0,1244,2,5,-0.813825211341897,1.52607345794583
50,893,7306,"q",0,1032,1.5,5,-1.23050371954895,1.52607345794583
51,893,7310,"p",1,1246,4,4.5,0.852888821486308,1.05875909761792
52,893,7316,"q",0,1167,2,3,-0.813825211341897,-0.343183983365809
53,893,7308,"p",1,1241,4,3.5,0.852888821486308,0.124130376962101
54,893,7314,"q",0,864,1,5,-1.647182227756,1.52607345794583
55,893,7318,"q",0,950,5,1.5,1.68624583790041,-1.74512706434954
56,893,7311,"q",0,806,2,3,-0.813825211341897,-0.343183983365809
57,893,7319,"q",0,910,4.5,3.5,1.26956732969336,0.124130376962101
58,893,7307,"q",0,2151,1.5,3.5,-1.23050371954895,0.124130376962101
59,893,7320,"q",0,2082,2,5,-0.813825211341897,1.52607345794583
60,893,7313,"q",0,807,3.5,2.5,0.436210313279257,-0.810498343693718
61,893,7315,"q",0,710,5,2.5,1.68624583790041,-0.810498343693718
62,893,7312,"q",0,921,1.5,3.5,-1.23050371954895,0.124130376962101
63,893,7309,"p",1,1478,3.5,3.5,0.436210313279257,0.124130376962101
64,893,7305,"p",1,1502,4.5,1.5,1.26956732969336,-1.74512706434954
1,895,7264,"q",0,1449,2,4,-0.813825211341897,0.591444737290011
2,895,7272,"q",0,72,2,4,-0.813825211341897,0.591444737290011
3,895,7268,"q",0,165,3.5,4,0.436210313279257,0.591444737290011
4,895,7266,"q",0,210,4.5,1.5,1.26956732969336,-1.74512706434954
5,895,7265,"q",0,110,2.5,4.5,-0.397146703134846,1.05875909761792
6,895,7258,"q",0,195,4.5,1.5,1.26956732969336,-1.74512706434954
7,895,7257,"q",0,382,2,4,-0.813825211341897,0.591444737290011
8,895,7263,"q",0,176,4,4,0.852888821486308,0.591444737290011
9,895,7261,"q",0,79,2.5,5,-0.397146703134846,1.52607345794583
10,895,7271,"q",0,276,5,1,1.68624583790041,-2.21244142467745
11,895,7267,"q",0,29,2.5,4,-0.397146703134846,0.591444737290011
12,895,7262,"q",0,33,1,5,-1.647182227756,1.52607345794583
13,895,7260,"q",0,191,3.5,1.5,0.436210313279257,-1.74512706434954
14,895,7259,"q",0,143,3.5,3,0.436210313279257,-0.343183983365809
15,895,7269,"q",0,71,4,3.5,0.852888821486308,0.124130376962101
16,895,7270,"q",0,56,1.5,4.5,-1.23050371954895,1.05875909761792
17,895,7287,"q",0,181,4,2,0.852888821486308,-1.27781270402163
18,895,7275,"q",0,112,4.5,3,1.26956732969336,-0.343183983365809
19,895,7278,"q",0,84,2,4,-0.813825211341897,0.591444737290011
20,895,7285,"q",0,49,3,4,0.0195318050722055,0.591444737290011
21,895,7286,"q",0,343,2,4,-0.813825211341897,0.591444737290011
22,895,7280,"q",0,61,4.5,2,1.26956732969336,-1.27781270402163
23,895,7274,"q",0,156,2,4,-0.813825211341897,0.591444737290011
24,895,7282,"q",0,11,4.5,2,1.26956732969336,-1.27781270402163
25,895,7288,"q",0,144,2,3,-0.813825211341897,-0.343183983365809
26,895,7279,"q",0,458,3,4,0.0195318050722055,0.591444737290011
27,895,7284,"q",0,515,4.5,4,1.26956732969336,0.591444737290011
28,895,7273,"q",0,319,2,4,-0.813825211341897,0.591444737290011
29,895,7276,"q",0,172,3,2.5,0.0195318050722055,-0.810498343693718
30,895,7281,"q",0,223,1.5,3,-1.23050371954895,-0.343183983365809
31,895,7277,"q",0,230,1,5,-1.647182227756,1.52607345794583
32,895,7283,"q",0,88,4,3.5,0.852888821486308,0.124130376962101
33,895,7290,"q",0,203,2,4,-0.813825211341897,0.591444737290011
34,895,7303,"q",0,92,3.5,4,0.436210313279257,0.591444737290011
35,895,7295,"q",0,480,4,2.5,0.852888821486308,-0.810498343693718
36,895,7291,"q",0,185,4.5,1.5,1.26956732969336,-1.74512706434954
37,895,7292,"q",0,175,1.5,3.5,-1.23050371954895,0.124130376962101
38,895,7298,"q",0,233,2,4,-0.813825211341897,0.591444737290011
39,895,7304,"q",0,153,2,3,-0.813825211341897,-0.343183983365809
40,895,7293,"q",0,206,4,3.5,0.852888821486308,0.124130376962101
41,895,7299,"q",0,203,4.5,2,1.26956732969336,-1.27781270402163
42,895,7302,"q",0,248,2,4,-0.813825211341897,0.591444737290011
43,895,7289,"q",0,182,3,2.5,0.0195318050722055,-0.810498343693718
44,895,7296,"q",0,187,3,1.5,0.0195318050722055,-1.74512706434954
45,895,7300,"q",0,223,1.5,4,-1.23050371954895,0.591444737290011
46,895,7297,"q",0,358,4,3.5,0.852888821486308,0.124130376962101
47,895,7294,"q",0,113,2,3.5,-0.813825211341897,0.124130376962101
48,895,7301,"q",0,77,3.5,3.5,0.436210313279257,0.124130376962101
49,895,7305,"q",0,40,4.5,1.5,1.26956732969336,-1.74512706434954
50,895,7307,"q",0,66,1.5,3.5,-1.23050371954895,0.124130376962101
51,895,7306,"q",0,306,1.5,5,-1.23050371954895,1.52607345794583
52,895,7318,"q",0,187,5,1.5,1.68624583790041,-1.74512706434954
53,895,7315,"q",0,141,5,2.5,1.68624583790041,-0.810498343693718
54,895,7319,"q",0,110,4.5,3.5,1.26956732969336,0.124130376962101
55,895,7320,"q",0,43,2,5,-0.813825211341897,1.52607345794583
56,895,7310,"q",0,112,4,4.5,0.852888821486308,1.05875909761792
57,895,7308,"q",0,1897,4,3.5,0.852888821486308,0.124130376962101
58,895,7317,"q",0,307,2,5,-0.813825211341897,1.52607345794583
59,895,7311,"q",0,204,2,3,-0.813825211341897,-0.343183983365809
60,895,7314,"q",0,33,1,5,-1.647182227756,1.52607345794583
61,895,7316,"q",0,92,2,3,-0.813825211341897,-0.343183983365809
62,895,7312,"q",0,165,1.5,3.5,-1.23050371954895,0.124130376962101
63,895,7313,"q",0,32,3.5,2.5,0.436210313279257,-0.810498343693718
64,895,7309,"q",0,24,3.5,3.5,0.436210313279257,0.124130376962101
1,899,7268,"q",0,4025,3.5,4,0.436210313279257,0.591444737290011
2,899,7272,"q",0,2038,2,4,-0.813825211341897,0.591444737290011
3,899,7265,"q",0,2857,2.5,4.5,-0.397146703134846,1.05875909761792
4,899,7258,"p",1,1847,4.5,1.5,1.26956732969336,-1.74512706434954
5,899,7260,"p",1,1999,3.5,1.5,0.436210313279257,-1.74512706434954
6,899,7264,"q",0,2152,2,4,-0.813825211341897,0.591444737290011
7,899,7257,"q",0,2757,2,4,-0.813825211341897,0.591444737290011
8,899,7261,"p",1,2353,2.5,5,-0.397146703134846,1.52607345794583
9,899,7263,"p",1,2805,4,4,0.852888821486308,0.591444737290011
10,899,7262,"q",0,1156,1,5,-1.647182227756,1.52607345794583
11,899,7266,"q",0,1378,4.5,1.5,1.26956732969336,-1.74512706434954
12,899,7259,"p",1,1952,3.5,3,0.436210313279257,-0.343183983365809
13,899,7267,"q",0,1503,2.5,4,-0.397146703134846,0.591444737290011
14,899,7270,"q",0,3197,1.5,4.5,-1.23050371954895,1.05875909761792
15,899,7269,"q",0,1024,4,3.5,0.852888821486308,0.124130376962101
16,899,7277,"q",0,3949,1,5,-1.647182227756,1.52607345794583
17,899,7274,"q",0,1339,2,4,-0.813825211341897,0.591444737290011
18,899,7288,"q",0,887,2,3,-0.813825211341897,-0.343183983365809
19,899,7285,"p",1,1438,3,4,0.0195318050722055,0.591444737290011
20,899,7281,"q",0,1384,1.5,3,-1.23050371954895,-0.343183983365809
21,899,7280,"p",1,3338,4.5,2,1.26956732969336,-1.27781270402163
22,899,7279,"p",1,1634,3,4,0.0195318050722055,0.591444737290011
23,899,7287,"p",1,1571,4,2,0.852888821486308,-1.27781270402163
24,899,7282,"q",0,807,4.5,2,1.26956732969336,-1.27781270402163
25,899,7284,"q",0,2084,4.5,4,1.26956732969336,0.591444737290011
26,899,7286,"q",0,1459,2,4,-0.813825211341897,0.591444737290011
27,899,7273,"q",0,870,2,4,-0.813825211341897,0.591444737290011
28,899,7278,"q",0,2902,2,4,-0.813825211341897,0.591444737290011
29,899,7276,"q",0,1143,3,2.5,0.0195318050722055,-0.810498343693718
30,899,7283,"p",1,3558,4,3.5,0.852888821486308,0.124130376962101
31,899,7275,"p",1,1975,4.5,3,1.26956732969336,-0.343183983365809
32,899,7298,"q",0,2162,2,4,-0.813825211341897,0.591444737290011
33,899,7300,"q",0,1851,1.5,4,-1.23050371954895,0.591444737290011
34,899,7290,"q",0,1057,2,4,-0.813825211341897,0.591444737290011
35,899,7302,"p",1,2462,2,4,-0.813825211341897,0.591444737290011
36,899,7292,"q",0,759,1.5,3.5,-1.23050371954895,0.124130376962101
37,899,7297,"p",1,1484,4,3.5,0.852888821486308,0.124130376962101
38,899,7304,"q",0,1538,2,3,-0.813825211341897,-0.343183983365809
39,899,7301,"p",1,2683,3.5,3.5,0.436210313279257,0.124130376962101
40,899,7291,"q",0,868,4.5,1.5,1.26956732969336,-1.74512706434954
41,899,7294,"q",0,2138,2,3.5,-0.813825211341897,0.124130376962101
42,899,7303,"p",1,3318,3.5,4,0.436210313279257,0.591444737290011
43,899,7296,"p",1,2337,3,1.5,0.0195318050722055,-1.74512706434954
44,899,7289,"p",1,1867,3,2.5,0.0195318050722055,-0.810498343693718
45,899,7299,"q",0,3235,4.5,2,1.26956732969336,-1.27781270402163
46,899,7295,"q",0,1417,4,2.5,0.852888821486308,-0.810498343693718
47,899,7293,"p",1,1178,4,3.5,0.852888821486308,0.124130376962101
48,899,7319,"p",1,3259,4.5,3.5,1.26956732969336,0.124130376962101
49,899,7308,"p",1,1075,4,3.5,0.852888821486308,0.124130376962101
50,899,7314,"q",0,963,1,5,-1.647182227756,1.52607345794583
51,899,7311,"q",0,1067,2,3,-0.813825211341897,-0.343183983365809
52,899,7309,"p",1,1990,3.5,3.5,0.436210313279257,0.124130376962101
53,899,7305,"p",1,2225,4.5,1.5,1.26956732969336,-1.74512706434954
54,899,7306,"q",0,2571,1.5,5,-1.23050371954895,1.52607345794583
55,899,7313,"q",0,965,3.5,2.5,0.436210313279257,-0.810498343693718
56,899,7315,"q",0,1535,5,2.5,1.68624583790041,-0.810498343693718
57,899,7312,"q",0,3596,1.5,3.5,-1.23050371954895,0.124130376962101
58,899,7316,"p",1,2459,2,3,-0.813825211341897,-0.343183983365809
59,899,7318,"p",1,1368,5,1.5,1.68624583790041,-1.74512706434954
60,899,7310,"p",1,4768,4,4.5,0.852888821486308,1.05875909761792
61,899,7320,"p",1,2059,2,5,-0.813825211341897,1.52607345794583
62,899,7317,"p",1,1000,2,5,-0.813825211341897,1.52607345794583
63,899,7307,"q",0,1939,1.5,3.5,-1.23050371954895,0.124130376962101
1,901,7267,"p",1,1560,2.5,4,-0.397146703134846,0.591444737290011
2,901,7262,"q",0,766,1,5,-1.647182227756,1.52607345794583
3,901,7266,"p",1,1103,4.5,1.5,1.26956732969336,-1.74512706434954
4,901,7268,"p",1,915,3.5,4,0.436210313279257,0.591444737290011
5,901,7261,"p",1,1079,2.5,5,-0.397146703134846,1.52607345794583
6,901,7257,"p",1,1540,2,4,-0.813825211341897,0.591444737290011
7,901,7272,"p",1,1715,2,4,-0.813825211341897,0.591444737290011
8,901,7259,"p",1,1162,3.5,3,0.436210313279257,-0.343183983365809
9,901,7265,"p",1,1307,2.5,4.5,-0.397146703134846,1.05875909761792
10,901,7263,"p",1,1265,4,4,0.852888821486308,0.591444737290011
11,901,7271,"p",1,1244,5,1,1.68624583790041,-2.21244142467745
12,901,7264,"p",1,1259,2,4,-0.813825211341897,0.591444737290011
13,901,7269,"p",1,1447,4,3.5,0.852888821486308,0.124130376962101
14,901,7260,"p",1,2015,3.5,1.5,0.436210313279257,-1.74512706434954
15,901,7258,"p",1,1059,4.5,1.5,1.26956732969336,-1.74512706434954
16,901,7270,"q",0,2403,1.5,4.5,-1.23050371954895,1.05875909761792
17,901,7275,"p",1,1693,4.5,3,1.26956732969336,-0.343183983365809
18,901,7284,"p",1,1458,4.5,4,1.26956732969336,0.591444737290011
19,901,7286,"p",1,1064,2,4,-0.813825211341897,0.591444737290011
20,901,7282,"p",1,1020,4.5,2,1.26956732969336,-1.27781270402163
21,901,7280,"p",1,1125,4.5,2,1.26956732969336,-1.27781270402163
22,901,7278,"q",0,3356,2,4,-0.813825211341897,0.591444737290011
23,901,7288,"p",1,2218,2,3,-0.813825211341897,-0.343183983365809
24,901,7285,"p",1,1413,3,4,0.0195318050722055,0.591444737290011
25,901,7281,"p",1,1919,1.5,3,-1.23050371954895,-0.343183983365809
