"AUTDM.response.id","pers","itemid","response","creative","rt","orig.rating","util.rating","orig.rating_s","util.rating_s","trial"
29612,1964,7262,"p",0,4715,1,5,-1.647182227756,1.52607345794583,1
29613,1964,7257,"p",0,4024,2,4,-0.813825211341897,0.591444737290011,2
29614,1964,7268,"q",1,1163,3.5,4,0.436210313279257,0.591444737290011,3
29615,1964,7269,"q",1,2803,4,3.5,0.852888821486308,0.124130376962101,4
29616,1964,7263,"q",1,1925,4,4,0.852888821486308,0.591444737290011,5
29617,1964,7264,"p",0,1995,2,4,-0.813825211341897,0.591444737290011,6
29618,1964,7272,"p",0,1618,2,4,-0.813825211341897,0.591444737290011,7
29619,1964,7265,"p",0,1277,2.5,4.5,-0.397146703134846,1.05875909761792,8
29620,1964,7271,"q",1,981,5,1,1.68624583790041,-2.21244142467745,9
29621,1964,7259,"q",1,992,3.5,3,0.436210313279257,-0.343183983365809,10
29622,1964,7266,"q",1,1008,4.5,1.5,1.26956732969336,-1.74512706434954,11
29623,1964,7258,"q",1,1133,4.5,1.5,1.26956732969336,-1.74512706434954,12
29624,1964,7261,"q",1,3161,2.5,5,-0.397146703134846,1.52607345794583,13
29625,1964,7260,"q",1,2115,3.5,1.5,0.436210313279257,-1.74512706434954,14
29626,1964,7267,"p",0,1601,2.5,4,-0.397146703134846,0.591444737290011,15
29627,1964,7280,"q",1,5889,4.5,2,1.26956732969336,-1.27781270402163,16
29628,1964,7283,"q",1,6159,4,3.5,0.852888821486308,0.124130376962101,17
29629,1964,7284,"p",0,1255,4.5,4,1.26956732969336,0.591444737290011,18
29630,1964,7274,"q",1,984,2,4,-0.813825211341897,0.591444737290011,19
29631,1964,7282,"q",1,4697,4.5,2,1.26956732969336,-1.27781270402163,20
29632,1964,7275,"q",1,2607,4.5,3,1.26956732969336,-0.343183983365809,21
29633,1964,7287,"q",1,1440,4,2,0.852888821486308,-1.27781270402163,22
29634,1964,7276,"p",0,807,3,2.5,0.0195318050722055,-0.810498343693718,23
29635,1964,7279,"p",0,1613,3,4,0.0195318050722055,0.591444737290011,24
29636,1964,7286,"p",0,1015,2,4,-0.813825211341897,0.591444737290011,25
29637,1964,7278,"p",0,974,2,4,-0.813825211341897,0.591444737290011,26
29638,1964,7277,"p",0,1691,1,5,-1.647182227756,1.52607345794583,27
29639,1964,7288,"p",0,1038,2,3,-0.813825211341897,-0.343183983365809,28
29640,1964,7292,"p",0,2946,1.5,3.5,-1.23050371954895,0.124130376962101,29
29641,1964,7291,"p",0,882,4.5,1.5,1.26956732969336,-1.74512706434954,30
29642,1964,7298,"p",0,798,2,4,-0.813825211341897,0.591444737290011,31
29643,1964,7301,"p",0,773,3.5,3.5,0.436210313279257,0.124130376962101,32
29644,1964,7302,"p",0,778,2,4,-0.813825211341897,0.591444737290011,33
29645,1964,7304,"p",0,184,2,3,-0.813825211341897,-0.343183983365809,34
29646,1964,7289,"p",0,190,3,2.5,0.0195318050722055,-0.810498343693718,35
29647,1964,7293,"p",0,146,4,3.5,0.852888821486308,0.124130376962101,36
29648,1964,7297,"p",0,60,4,3.5,0.852888821486308,0.124130376962101,37
29649,1964,7299,"p",0,140,4.5,2,1.26956732969336,-1.27781270402163,38
29650,1964,7295,"p",0,95,4,2.5,0.852888821486308,-0.810498343693718,39
29651,1964,7303,"p",0,155,3.5,4,0.436210313279257,0.591444737290011,40
29652,1964,7294,"p",0,82,2,3.5,-0.813825211341897,0.124130376962101,41
29653,1964,7300,"p",0,196,1.5,4,-1.23050371954895,0.591444737290011,42
29654,1964,7296,"p",0,175,3,1.5,0.0195318050722055,-1.74512706434954,43
29655,1964,7290,"p",0,30,2,4,-0.813825211341897,0.591444737290011,44
29656,1964,7320,"p",0,159,2,5,-0.813825211341897,1.52607345794583,45
29657,1964,7314,"p",0,178,1,5,-1.647182227756,1.52607345794583,46
29658,1964,7315,"p",0,135,5,2.5,1.68624583790041,-0.810498343693718,47
29659,1964,7317,"q",1,159,2,5,-0.813825211341897,1.52607345794583,48
29660,1964,7311,"q",1,126,2,3,-0.813825211341897,-0.343183983365809,49
29661,1964,7308,"q",1,415,4,3.5,0.852888821486308,0.124130376962101,50
29662,1964,7310,"q",1,72,4,4.5,0.852888821486308,1.05875909761792,51
29663,1964,7307,"q",1,207,1.5,3.5,-1.23050371954895,0.124130376962101,52
29664,1964,7318,"q",1,33,5,1.5,1.68624583790041,-1.74512706434954,53
29665,1964,7306,"q",1,114,1.5,5,-1.23050371954895,1.52607345794583,54
29666,1964,7319,"q",1,113,4.5,3.5,1.26956732969336,0.124130376962101,55
29667,1964,7309,"q",1,86,3.5,3.5,0.436210313279257,0.124130376962101,56
29668,1964,7316,"q",1,126,2,3,-0.813825211341897,-0.343183983365809,57
29669,1964,7312,"q",1,76,1.5,3.5,-1.23050371954895,0.124130376962101,58
29670,1964,7305,"q",1,8,4.5,1.5,1.26956732969336,-1.74512706434954,59
29671,1964,7313,"q",1,728,3.5,2.5,0.436210313279257,-0.810498343693718,60
29672,1967,7271,"q",0,3508,5,1,1.68624583790041,-2.21244142467745,1
29673,1967,7265,"q",0,356,2.5,4.5,-0.397146703134846,1.05875909761792,2
29674,1967,7270,"q",0,364,1.5,4.5,-1.23050371954895,1.05875909761792,3
29675,1967,7261,"q",0,777,2.5,5,-0.397146703134846,1.52607345794583,4
29676,1967,7263,"q",0,4335,4,4,0.852888821486308,0.591444737290011,5
29677,1967,7269,"q",0,285,4,3.5,0.852888821486308,0.124130376962101,6
29678,1967,7266,"q",0,263,4.5,1.5,1.26956732969336,-1.74512706434954,7
29679,1967,7268,"q",0,287,3.5,4,0.436210313279257,0.591444737290011,8
29680,1967,7272,"q",0,370,2,4,-0.813825211341897,0.591444737290011,9
29681,1967,7262,"q",0,330,1,5,-1.647182227756,1.52607345794583,10
29682,1967,7264,"q",0,270,2,4,-0.813825211341897,0.591444737290011,11
29683,1967,7258,"q",0,353,4.5,1.5,1.26956732969336,-1.74512706434954,12
29684,1967,7267,"q",0,1067,2.5,4,-0.397146703134846,0.591444737290011,13
29685,1967,7257,"q",0,671,2,4,-0.813825211341897,0.591444737290011,14
29686,1967,7260,"q",0,187,3.5,1.5,0.436210313279257,-1.74512706434954,15
29687,1967,7259,"q",0,293,3.5,3,0.436210313279257,-0.343183983365809,16
29688,1967,7284,"q",0,1464,4.5,4,1.26956732969336,0.591444737290011,17
29689,1967,7277,"q",0,412,1,5,-1.647182227756,1.52607345794583,18
29690,1967,7286,"q",0,350,2,4,-0.813825211341897,0.591444737290011,19
29691,1967,7280,"q",0,278,4.5,2,1.26956732969336,-1.27781270402163,20
29692,1967,7283,"q",0,365,4,3.5,0.852888821486308,0.124130376962101,21
29693,1967,7276,"q",0,356,3,2.5,0.0195318050722055,-0.810498343693718,22
29694,1967,7287,"q",0,287,4,2,0.852888821486308,-1.27781270402163,23
29695,1967,7288,"q",0,288,2,3,-0.813825211341897,-0.343183983365809,24
29696,1967,7274,"q",0,321,2,4,-0.813825211341897,0.591444737290011,25
29697,1967,7285,"q",0,337,3,4,0.0195318050722055,0.591444737290011,26
29698,1967,7275,"q",0,345,4.5,3,1.26956732969336,-0.343183983365809,27
29699,1967,7273,"q",0,591,2,4,-0.813825211341897,0.591444737290011,28
29700,1967,7282,"q",0,279,4.5,2,1.26956732969336,-1.27781270402163,29
29701,1967,7278,"q",0,292,2,4,-0.813825211341897,0.591444737290011,30
29702,1967,7279,"q",0,253,3,4,0.0195318050722055,0.591444737290011,31
29703,1967,7281,"q",0,296,1.5,3,-1.23050371954895,-0.343183983365809,32
29704,1967,7304,"q",0,500,2,3,-0.813825211341897,-0.343183983365809,33
29705,1967,7290,"q",0,414,2,4,-0.813825211341897,0.591444737290011,34
29706,1967,7293,"q",0,412,4,3.5,0.852888821486308,0.124130376962101,35
29707,1967,7291,"q",0,426,4.5,1.5,1.26956732969336,-1.74512706434954,36
29708,1967,7294,"q",0,300,2,3.5,-0.813825211341897,0.124130376962101,37
29709,1967,7295,"q",0,162,4,2.5,0.852888821486308,-0.810498343693718,38
29710,1967,7297,"q",0,131,4,3.5,0.852888821486308,0.124130376962101,39
29711,1967,7301,"q",0,345,3.5,3.5,0.436210313279257,0.124130376962101,40
29712,1967,7303,"q",0,234,3.5,4,0.436210313279257,0.591444737290011,41
29713,1967,7300,"q",0,1405,1.5,4,-1.23050371954895,0.591444737290011,42
29714,1967,7289,"q",0,886,3,2.5,0.0195318050722055,-0.810498343693718,43
29715,1967,7292,"q",0,277,1.5,3.5,-1.23050371954895,0.124130376962101,44
29716,1967,7298,"q",0,272,2,4,-0.813825211341897,0.591444737290011,45
29717,1967,7302,"q",0,303,2,4,-0.813825211341897,0.591444737290011,46
29718,1967,7296,"q",0,285,3,1.5,0.0195318050722055,-1.74512706434954,47
29719,1967,7299,"q",0,328,4.5,2,1.26956732969336,-1.27781270402163,48
29720,1967,7317,"q",0,528,2,5,-0.813825211341897,1.52607345794583,49
29721,1967,7308,"q",0,428,4,3.5,0.852888821486308,0.124130376962101,50
29722,1967,7316,"q",0,389,2,3,-0.813825211341897,-0.343183983365809,51
29723,1967,7319,"q",0,272,4.5,3.5,1.26956732969336,0.124130376962101,52
29724,1967,7313,"q",0,322,3.5,2.5,0.436210313279257,-0.810498343693718,53
29725,1967,7310,"q",0,310,4,4.5,0.852888821486308,1.05875909761792,54
29726,1967,7312,"q",0,335,1.5,3.5,-1.23050371954895,0.124130376962101,55
29727,1967,7314,"q",0,85,1,5,-1.647182227756,1.52607345794583,56
29728,1967,7305,"q",0,290,4.5,1.5,1.26956732969336,-1.74512706434954,57
29729,1967,7315,"q",0,262,5,2.5,1.68624583790041,-0.810498343693718,58
29730,1967,7320,"q",0,262,2,5,-0.813825211341897,1.52607345794583,59
29731,1967,7306,"q",0,277,1.5,5,-1.23050371954895,1.52607345794583,60
29732,1967,7307,"q",0,243,1.5,3.5,-1.23050371954895,0.124130376962101,61
29733,1967,7309,"q",0,283,3.5,3.5,0.436210313279257,0.124130376962101,62
29734,1967,7311,"q",0,242,2,3,-0.813825211341897,-0.343183983365809,63
29735,1967,7318,"q",0,86,5,1.5,1.68624583790041,-1.74512706434954,64
29814,1985,7272,"p",1,1597,2,4,-0.813825211341897,0.591444737290011,1
29815,1985,7260,"p",1,415,3.5,1.5,0.436210313279257,-1.74512706434954,2
29816,1985,7261,"q",0,226,2.5,5,-0.397146703134846,1.52607345794583,3
29817,1985,7262,"p",1,553,1,5,-1.647182227756,1.52607345794583,4
29818,1985,7269,"p",1,425,4,3.5,0.852888821486308,0.124130376962101,5
29819,1985,7270,"p",1,253,1.5,4.5,-1.23050371954895,1.05875909761792,6
29820,1985,7264,"p",1,914,2,4,-0.813825211341897,0.591444737290011,7
29821,1985,7258,"p",1,793,4.5,1.5,1.26956732969336,-1.74512706434954,8
29822,1985,7259,"p",1,869,3.5,3,0.436210313279257,-0.343183983365809,9
29823,1985,7267,"p",1,1339,2.5,4,-0.397146703134846,0.591444737290011,10
29824,1985,7271,"p",1,1426,5,1,1.68624583790041,-2.21244142467745,11
29825,1985,7265,"p",1,2793,2.5,4.5,-0.397146703134846,1.05875909761792,12
29826,1985,7266,"p",1,316,4.5,1.5,1.26956732969336,-1.74512706434954,13
29827,1985,7268,"p",1,335,3.5,4,0.436210313279257,0.591444737290011,14
29828,1985,7285,"q",0,1060,3,4,0.0195318050722055,0.591444737290011,15
29829,1985,7279,"q",0,403,3,4,0.0195318050722055,0.591444737290011,16
29830,1985,7276,"q",0,423,3,2.5,0.0195318050722055,-0.810498343693718,17
29831,1985,7287,"q",0,458,4,2,0.852888821486308,-1.27781270402163,18
29832,1985,7273,"q",0,509,2,4,-0.813825211341897,0.591444737290011,19
29833,1985,7284,"q",0,477,4.5,4,1.26956732969336,0.591444737290011,20
29834,1985,7278,"q",0,273,2,4,-0.813825211341897,0.591444737290011,21
29835,1985,7286,"q",0,152,2,4,-0.813825211341897,0.591444737290011,22
29836,1985,7275,"q",0,247,4.5,3,1.26956732969336,-0.343183983365809,23
29837,1985,7274,"q",0,255,2,4,-0.813825211341897,0.591444737290011,24
29838,1985,7283,"q",0,195,4,3.5,0.852888821486308,0.124130376962101,25
29839,1985,7277,"q",0,308,1,5,-1.647182227756,1.52607345794583,26
29840,1985,7280,"q",0,282,4.5,2,1.26956732969336,-1.27781270402163,27
29841,1985,7282,"q",0,642,4.5,2,1.26956732969336,-1.27781270402163,28
29842,1985,7281,"q",0,227,1.5,3,-1.23050371954895,-0.343183983365809,29
29843,1985,7288,"q",0,278,2,3,-0.813825211341897,-0.343183983365809,30
29844,1985,7290,"p",1,331,2,4,-0.813825211341897,0.591444737290011,31
29845,1985,7303,"q",0,265,3.5,4,0.436210313279257,0.591444737290011,32
29846,1985,7304,"p",1,284,2,3,-0.813825211341897,-0.343183983365809,33
29847,1985,7292,"p",1,244,1.5,3.5,-1.23050371954895,0.124130376962101,34
29848,1985,7300,"q",0,276,1.5,4,-1.23050371954895,0.591444737290011,35
29849,1985,7295,"p",1,290,4,2.5,0.852888821486308,-0.810498343693718,36
29850,1985,7296,"q",0,342,3,1.5,0.0195318050722055,-1.74512706434954,37
29851,1985,7293,"p",1,556,4,3.5,0.852888821486308,0.124130376962101,38
29852,1985,7302,"p",1,253,2,4,-0.813825211341897,0.591444737290011,39
29853,1985,7294,"p",1,338,2,3.5,-0.813825211341897,0.124130376962101,40
29854,1985,7291,"p",1,323,4.5,1.5,1.26956732969336,-1.74512706434954,41
29855,1985,7301,"q",0,160,3.5,3.5,0.436210313279257,0.124130376962101,42
29856,1985,7297,"p",1,335,4,3.5,0.852888821486308,0.124130376962101,43
29857,1985,7298,"p",1,483,2,4,-0.813825211341897,0.591444737290011,44
29858,1985,7299,"p",1,340,4.5,2,1.26956732969336,-1.27781270402163,45
29859,1985,7289,"p",1,501,3,2.5,0.0195318050722055,-0.810498343693718,46
29860,1985,7308,"q",0,167,4,3.5,0.852888821486308,0.124130376962101,47
29861,1985,7312,"p",1,474,1.5,3.5,-1.23050371954895,0.124130376962101,48
29862,1985,7306,"p",1,426,1.5,5,-1.23050371954895,1.52607345794583,49
29863,1985,7318,"q",0,316,5,1.5,1.68624583790041,-1.74512706434954,50
29864,1985,7310,"p",1,358,4,4.5,0.852888821486308,1.05875909761792,51
29865,1985,7319,"q",0,242,4.5,3.5,1.26956732969336,0.124130376962101,52
29866,1985,7311,"p",1,276,2,3,-0.813825211341897,-0.343183983365809,53
29867,1985,7317,"p",1,9257,2,5,-0.813825211341897,1.52607345794583,54
29868,1985,7313,"p",1,561,3.5,2.5,0.436210313279257,-0.810498343693718,55
29869,1985,7305,"p",1,192,4.5,1.5,1.26956732969336,-1.74512706434954,56
29870,1985,7315,"p",1,281,5,2.5,1.68624583790041,-0.810498343693718,57
29871,1985,7316,"p",1,276,2,3,-0.813825211341897,-0.343183983365809,58
29872,1985,7314,"p",1,111,1,5,-1.647182227756,1.52607345794583,59
29873,1985,7309,"p",1,62,3.5,3.5,0.436210313279257,0.124130376962101,60
29874,1985,7307,"p",1,112,1.5,3.5,-1.23050371954895,0.124130376962101,61
29875,1986,7257,"p",0,365,2,4,-0.813825211341897,0.591444737290011,1
29876,1986,7263,"p",0,190,4,4,0.852888821486308,0.591444737290011,2
29877,1986,7258,"p",0,470,4.5,1.5,1.26956732969336,-1.74512706434954,3
29878,1986,7262,"p",0,1138,1,5,-1.647182227756,1.52607345794583,4
29879,1986,7267,"p",0,334,2.5,4,-0.397146703134846,0.591444737290011,5
29880,1986,7261,"p",0,447,2.5,5,-0.397146703134846,1.52607345794583,6
29881,1986,7259,"p",0,2238,3.5,3,0.436210313279257,-0.343183983365809,7
29882,1986,7270,"p",0,986,1.5,4.5,-1.23050371954895,1.05875909761792,8
29883,1986,7268,"p",0,121,3.5,4,0.436210313279257,0.591444737290011,9
29884,1986,7271,"p",0,207,5,1,1.68624583790041,-2.21244142467745,10
29885,1986,7269,"p",0,685,4,3.5,0.852888821486308,0.124130376962101,11
29886,1986,7266,"p",0,471,4.5,1.5,1.26956732969336,-1.74512706434954,12
29887,1986,7272,"p",0,127,2,4,-0.813825211341897,0.591444737290011,13
29888,1986,7260,"p",0,146,3.5,1.5,0.436210313279257,-1.74512706434954,14
29889,1986,7264,"p",0,813,2,4,-0.813825211341897,0.591444737290011,15
29890,1986,7265,"p",0,405,2.5,4.5,-0.397146703134846,1.05875909761792,16
29891,1986,7280,"p",0,957,4.5,2,1.26956732969336,-1.27781270402163,17
29892,1986,7273,"p",0,555,2,4,-0.813825211341897,0.591444737290011,18
29893,1986,7275,"p",0,487,4.5,3,1.26956732969336,-0.343183983365809,19
29894,1986,7283,"p",0,676,4,3.5,0.852888821486308,0.124130376962101,20
29895,1986,7288,"p",0,5628,2,3,-0.813825211341897,-0.343183983365809,21
29896,1986,7279,"p",0,525,3,4,0.0195318050722055,0.591444737290011,22
29897,1986,7276,"p",0,1848,3,2.5,0.0195318050722055,-0.810498343693718,23
29898,1986,7287,"p",0,933,4,2,0.852888821486308,-1.27781270402163,24
29899,1986,7285,"p",0,976,3,4,0.0195318050722055,0.591444737290011,25
29900,1986,7282,"p",0,2549,4.5,2,1.26956732969336,-1.27781270402163,26
29901,1986,7281,"p",0,1664,1.5,3,-1.23050371954895,-0.343183983365809,27
29902,1986,7278,"p",0,916,2,4,-0.813825211341897,0.591444737290011,28
29903,1986,7284,"p",0,1112,4.5,4,1.26956732969336,0.591444737290011,29
29904,1986,7274,"p",0,884,2,4,-0.813825211341897,0.591444737290011,30
29905,1986,7286,"p",0,637,2,4,-0.813825211341897,0.591444737290011,31
29906,1986,7277,"p",0,2459,1,5,-1.647182227756,1.52607345794583,32
29907,1986,7289,"p",0,1766,3,2.5,0.0195318050722055,-0.810498343693718,33
29908,1986,7298,"p",0,2786,2,4,-0.813825211341897,0.591444737290011,34
29909,1986,7291,"p",0,251,4.5,1.5,1.26956732969336,-1.74512706434954,35
29910,1986,7296,"p",0,252,3,1.5,0.0195318050722055,-1.74512706434954,36
29911,1986,7290,"p",0,13,2,4,-0.813825211341897,0.591444737290011,37
29912,1986,7295,"p",0,1011,4,2.5,0.852888821486308,-0.810498343693718,38
29913,1986,7300,"p",0,626,1.5,4,-1.23050371954895,0.591444737290011,39
29914,1986,7293,"p",0,1669,4,3.5,0.852888821486308,0.124130376962101,40
29915,1986,7304,"p",0,188,2,3,-0.813825211341897,-0.343183983365809,41
29916,1986,7303,"p",0,50,3.5,4,0.436210313279257,0.591444737290011,42
29917,1986,7301,"p",0,367,3.5,3.5,0.436210313279257,0.124130376962101,43
29918,1986,7299,"p",0,417,4.5,2,1.26956732969336,-1.27781270402163,44
29919,1986,7297,"p",0,257,4,3.5,0.852888821486308,0.124130376962101,45
29920,1986,7292,"p",0,3310,1.5,3.5,-1.23050371954895,0.124130376962101,46
29921,1986,7294,"p",0,7879,2,3.5,-0.813825211341897,0.124130376962101,47
29922,1986,7320,"p",0,952,2,5,-0.813825211341897,1.52607345794583,48
29923,1986,7316,"p",0,214,2,3,-0.813825211341897,-0.343183983365809,49
29924,1986,7308,"p",0,239,4,3.5,0.852888821486308,0.124130376962101,50
29925,1986,7309,"p",0,193,3.5,3.5,0.436210313279257,0.124130376962101,51
29926,1986,7315,"p",0,5898,5,2.5,1.68624583790041,-0.810498343693718,52
29927,1986,7312,"p",0,1650,1.5,3.5,-1.23050371954895,0.124130376962101,53
29928,1986,7318,"p",0,184,5,1.5,1.68624583790041,-1.74512706434954,54
29929,1986,7317,"p",0,436,2,5,-0.813825211341897,1.52607345794583,55
29930,1986,7313,"p",0,398,3.5,2.5,0.436210313279257,-0.810498343693718,56
29931,1986,7307,"p",0,578,1.5,3.5,-1.23050371954895,0.124130376962101,57
29932,1986,7319,"p",0,446,4.5,3.5,1.26956732969336,0.124130376962101,58
29933,1986,7305,"p",0,4571,4.5,1.5,1.26956732969336,-1.74512706434954,59
29934,1986,7311,"p",0,142,2,3,-0.813825211341897,-0.343183983365809,60
29935,1986,7314,"p",0,192,1,5,-1.647182227756,1.52607345794583,61
29936,1986,7306,"p",0,31,1.5,5,-1.23050371954895,1.52607345794583,62
29937,1986,7310,"p",0,470,4,4.5,0.852888821486308,1.05875909761792,63
29970,1988,7258,"q",1,6494,4.5,1.5,1.26956732969336,-1.74512706434954,1
29971,1988,7264,"p",0,1415,2,4,-0.813825211341897,0.591444737290011,2
29972,1988,7271,"q",1,36,5,1,1.68624583790041,-2.21244142467745,3
29973,1988,7263,"p",0,364,4,4,0.852888821486308,0.591444737290011,4
29974,1988,7266,"q",1,549,4.5,1.5,1.26956732969336,-1.74512706434954,5
29975,1988,7259,"q",1,448,3.5,3,0.436210313279257,-0.343183983365809,6
29976,1988,7260,"p",0,472,3.5,1.5,0.436210313279257,-1.74512706434954,7
29977,1988,7265,"p",0,463,2.5,4.5,-0.397146703134846,1.05875909761792,8
29978,1988,7269,"p",0,444,4,3.5,0.852888821486308,0.124130376962101,9
29979,1988,7270,"p",0,384,1.5,4.5,-1.23050371954895,1.05875909761792,10
29980,1988,7257,"p",0,344,2,4,-0.813825211341897,0.591444737290011,11
29981,1988,7261,"q",1,357,2.5,5,-0.397146703134846,1.52607345794583,12
29982,1988,7268,"p",0,519,3.5,4,0.436210313279257,0.591444737290011,13
29999,1988,7275,"q",1,451,4.5,3,1.26956732969336,-0.343183983365809,14
30000,1988,7281,"q",1,550,1.5,3,-1.23050371954895,-0.343183983365809,15
30001,1988,7282,"q",1,397,4.5,2,1.26956732969336,-1.27781270402163,16
30002,1988,7276,"q",1,343,3,2.5,0.0195318050722055,-0.810498343693718,17
30003,1988,7278,"q",1,248,2,4,-0.813825211341897,0.591444737290011,18
30004,1988,7287,"q",1,366,4,2,0.852888821486308,-1.27781270402163,19
30005,1988,7273,"q",1,360,2,4,-0.813825211341897,0.591444737290011,20
30006,1988,7274,"q",1,474,2,4,-0.813825211341897,0.591444737290011,21
30007,1988,7285,"q",1,410,3,4,0.0195318050722055,0.591444737290011,22
30008,1988,7277,"q",1,359,1,5,-1.647182227756,1.52607345794583,23
30009,1988,7279,"p",0,149,3,4,0.0195318050722055,0.591444737290011,24
30010,1988,7283,"p",0,303,4,3.5,0.852888821486308,0.124130376962101,25
30011,1988,7284,"p",0,362,4.5,4,1.26956732969336,0.591444737290011,26
30012,1988,7286,"p",0,421,2,4,-0.813825211341897,0.591444737290011,27
30013,1988,7288,"p",0,315,2,3,-0.813825211341897,-0.343183983365809,28
30014,1988,7280,"p",0,340,4.5,2,1.26956732969336,-1.27781270402163,29
30031,1988,7301,"p",0,319,3.5,3.5,0.436210313279257,0.124130376962101,30
30032,1988,7289,"p",0,355,3,2.5,0.0195318050722055,-0.810498343693718,31
30033,1988,7304,"p",0,638,2,3,-0.813825211341897,-0.343183983365809,32
30034,1988,7290,"p",0,400,2,4,-0.813825211341897,0.591444737290011,33
30035,1988,7298,"p",0,412,2,4,-0.813825211341897,0.591444737290011,34
30036,1988,7303,"p",0,408,3.5,4,0.436210313279257,0.591444737290011,35
30037,1988,7293,"p",0,378,4,3.5,0.852888821486308,0.124130376962101,36
30038,1988,7299,"p",0,533,4.5,2,1.26956732969336,-1.27781270402163,37
30039,1988,7294,"p",0,424,2,3.5,-0.813825211341897,0.124130376962101,38
30040,1988,7300,"p",0,484,1.5,4,-1.23050371954895,0.591444737290011,39
30041,1988,7302,"p",0,417,2,4,-0.813825211341897,0.591444737290011,40
30042,1988,7292,"p",0,391,1.5,3.5,-1.23050371954895,0.124130376962101,41
30043,1988,7295,"p",0,385,4,2.5,0.852888821486308,-0.810498343693718,42
30044,1988,7296,"p",0,372,3,1.5,0.0195318050722055,-1.74512706434954,43
30045,1988,7291,"p",0,297,4.5,1.5,1.26956732969336,-1.74512706434954,44
30046,1988,7297,"p",0,402,4,3.5,0.852888821486308,0.124130376962101,45
30047,1988,7311,"p",0,320,2,3,-0.813825211341897,-0.343183983365809,46
30048,1988,7319,"p",0,350,4.5,3.5,1.26956732969336,0.124130376962101,47
30049,1988,7312,"p",0,576,1.5,3.5,-1.23050371954895,0.124130376962101,48
30050,1988,7320,"p",0,551,2,5,-0.813825211341897,1.52607345794583,49
30051,1988,7316,"p",0,359,2,3,-0.813825211341897,-0.343183983365809,50
30052,1988,7308,"p",0,72,4,3.5,0.852888821486308,0.124130376962101,51
30053,1988,7318,"p",0,350,5,1.5,1.68624583790041,-1.74512706434954,52
30054,1988,7306,"p",0,401,1.5,5,-1.23050371954895,1.52607345794583,53
30055,1988,7314,"p",0,356,1,5,-1.647182227756,1.52607345794583,54
30056,1988,7315,"p",0,420,5,2.5,1.68624583790041,-0.810498343693718,55
30057,1988,7310,"p",0,349,4,4.5,0.852888821486308,1.05875909761792,56
30058,1988,7307,"p",0,360,1.5,3.5,-1.23050371954895,0.124130376962101,57
30059,1988,7317,"p",0,354,2,5,-0.813825211341897,1.52607345794583,58
30060,1988,7313,"p",0,374,3.5,2.5,0.436210313279257,-0.810498343693718,59
30061,1988,7309,"p",0,317,3.5,3.5,0.436210313279257,0.124130376962101,60
30062,1988,7305,"p",0,302,4.5,1.5,1.26956732969336,-1.74512706434954,61
29938,1989,7266,"p",1,6066,4.5,1.5,1.26956732969336,-1.74512706434954,1
29939,1989,7260,"p",1,1026,3.5,1.5,0.436210313279257,-1.74512706434954,2
29940,1989,7272,"p",1,166,2,4,-0.813825211341897,0.591444737290011,3
29941,1989,7261,"p",1,148,2.5,5,-0.397146703134846,1.52607345794583,4
29942,1989,7258,"p",1,1320,4.5,1.5,1.26956732969336,-1.74512706434954,5
29943,1989,7264,"q",0,75,2,4,-0.813825211341897,0.591444737290011,6
29944,1989,7269,"q",0,226,4,3.5,0.852888821486308,0.124130376962101,7
29945,1989,7257,"q",0,238,2,4,-0.813825211341897,0.591444737290011,8
29946,1989,7263,"q",0,67,4,4,0.852888821486308,0.591444737290011,9
29947,1989,7265,"p",1,246,2.5,4.5,-0.397146703134846,1.05875909761792,10
29948,1989,7271,"q",0,89,5,1,1.68624583790041,-2.21244142467745,11
29949,1989,7268,"p",1,135,3.5,4,0.436210313279257,0.591444737290011,12
29950,1989,7262,"q",0,172,1,5,-1.647182227756,1.52607345794583,13
29951,1989,7259,"q",0,447,3.5,3,0.436210313279257,-0.343183983365809,14
29952,1989,7267,"p",1,185,2.5,4,-0.397146703134846,0.591444737290011,15
29953,1989,7270,"q",0,185,1.5,4.5,-1.23050371954895,1.05875909761792,16
29954,1989,7278,"p",1,352,2,4,-0.813825211341897,0.591444737290011,17
29955,1989,7274,"q",0,74,2,4,-0.813825211341897,0.591444737290011,18
29956,1989,7273,"p",1,47,2,4,-0.813825211341897,0.591444737290011,19
29957,1989,7279,"q",0,50,3,4,0.0195318050722055,0.591444737290011,20
29958,1989,7283,"q",0,1,4,3.5,0.852888821486308,0.124130376962101,21
29959,1989,7282,"p",1,126,4.5,2,1.26956732969336,-1.27781270402163,22
29960,1989,7276,"p",1,180,3,2.5,0.0195318050722055,-0.810498343693718,23
29961,1989,7277,"p",1,214,1,5,-1.647182227756,1.52607345794583,24
29962,1989,7287,"p",1,188,4,2,0.852888821486308,-1.27781270402163,25
29963,1989,7285,"p",1,49,3,4,0.0195318050722055,0.591444737290011,26
29964,1989,7286,"q",0,114,2,4,-0.813825211341897,0.591444737290011,27
29965,1989,7275,"q",0,91,4.5,3,1.26956732969336,-0.343183983365809,28
29966,1989,7288,"q",0,54,2,3,-0.813825211341897,-0.343183983365809,29
29967,1989,7284,"q",0,2,4.5,4,1.26956732969336,0.591444737290011,30
29968,1989,7281,"q",0,372,1.5,3,-1.23050371954895,-0.343183983365809,31
29969,1989,7280,"q",0,213,4.5,2,1.26956732969336,-1.27781270402163,32
29983,1989,7301,"q",0,90,3.5,3.5,0.436210313279257,0.124130376962101,33
29984,1989,7289,"q",0,372,3,2.5,0.0195318050722055,-0.810498343693718,34
29985,1989,7297,"p",1,284,4,3.5,0.852888821486308,0.124130376962101,35
29986,1989,7298,"q",0,203,2,4,-0.813825211341897,0.591444737290011,36
29987,1989,7299,"q",0,112,4.5,2,1.26956732969336,-1.27781270402163,37
29988,1989,7302,"q",0,7,2,4,-0.813825211341897,0.591444737290011,38
29989,1989,7300,"q",0,16,1.5,4,-1.23050371954895,0.591444737290011,39
29990,1989,7290,"q",0,281,2,4,-0.813825211341897,0.591444737290011,40
29991,1989,7293,"p",1,211,4,3.5,0.852888821486308,0.124130376962101,41
29992,1989,7303,"q",0,273,3.5,4,0.436210313279257,0.591444737290011,42
29993,1989,7294,"p",1,168,2,3.5,-0.813825211341897,0.124130376962101,43
29994,1989,7296,"p",1,233,3,1.5,0.0195318050722055,-1.74512706434954,44
29995,1989,7292,"p",1,287,1.5,3.5,-1.23050371954895,0.124130376962101,45
29996,1989,7295,"p",1,21,4,2.5,0.852888821486308,-0.810498343693718,46
29997,1989,7304,"q",0,495,2,3,-0.813825211341897,-0.343183983365809,47
29998,1989,7291,"p",1,359,4.5,1.5,1.26956732969336,-1.74512706434954,48
30015,1989,7313,"p",1,1036,3.5,2.5,0.436210313279257,-0.810498343693718,49
30016,1989,7312,"p",1,501,1.5,3.5,-1.23050371954895,0.124130376962101,50
30017,1989,7309,"q",0,603,3.5,3.5,0.436210313279257,0.124130376962101,51
30018,1989,7306,"q",0,332,1.5,5,-1.23050371954895,1.52607345794583,52
30019,1989,7308,"q",0,171,4,3.5,0.852888821486308,0.124130376962101,53
30020,1989,7316,"q",0,189,2,3,-0.813825211341897,-0.343183983365809,54
30021,1989,7310,"q",0,203,4,4.5,0.852888821486308,1.05875909761792,55
30022,1989,7319,"p",1,80,4.5,3.5,1.26956732969336,0.124130376962101,56
30023,1989,7314,"p",1,211,1,5,-1.647182227756,1.52607345794583,57
30024,1989,7320,"q",0,187,2,5,-0.813825211341897,1.52607345794583,58
30025,1989,7305,"p",1,73,4.5,1.5,1.26956732969336,-1.74512706434954,59
30026,1989,7311,"p",1,20,2,3,-0.813825211341897,-0.343183983365809,60
30027,1989,7317,"p",1,310,2,5,-0.813825211341897,1.52607345794583,61
30028,1989,7315,"p",1,450,5,2.5,1.68624583790041,-0.810498343693718,62
30029,1989,7318,"p",1,493,5,1.5,1.68624583790041,-1.74512706434954,63
30030,1989,7307,"p",1,338,1.5,3.5,-1.23050371954895,0.124130376962101,64
30158,1996,7267,"q",1,4496,2.5,4,-0.397146703134846,0.591444737290011,1
30159,1996,7271,"p",0,487,5,1,1.68624583790041,-2.21244142467745,2
30160,1996,7262,"p",0,734,1,5,-1.647182227756,1.52607345794583,3
30161,1996,7264,"q",1,2114,2,4,-0.813825211341897,0.591444737290011,4
30162,1996,7260,"q",1,1256,3.5,1.5,0.436210313279257,-1.74512706434954,5
30163,1996,7257,"p",0,2182,2,4,-0.813825211341897,0.591444737290011,6
30164,1996,7261,"q",1,1157,2.5,5,-0.397146703134846,1.52607345794583,7
30165,1996,7268,"q",1,405,3.5,4,0.436210313279257,0.591444737290011,8
30166,1996,7258,"q",1,271,4.5,1.5,1.26956732969336,-1.74512706434954,9
30167,1996,7272,"p",0,292,2,4,-0.813825211341897,0.591444737290011,10
30168,1996,7263,"q",1,259,4,4,0.852888821486308,0.591444737290011,11
30169,1996,7259,"p",0,263,3.5,3,0.436210313279257,-0.343183983365809,12
30170,1996,7269,"p",0,346,4,3.5,0.852888821486308,0.124130376962101,13
30171,1996,7266,"q",1,330,4.5,1.5,1.26956732969336,-1.74512706434954,14
30172,1996,7265,"q",1,627,2.5,4.5,-0.397146703134846,1.05875909761792,15
30173,1996,7279,"p",0,1032,3,4,0.0195318050722055,0.591444737290011,16
30174,1996,7282,"p",0,313,4.5,2,1.26956732969336,-1.27781270402163,17
30175,1996,7281,"p",0,740,1.5,3,-1.23050371954895,-0.343183983365809,18
30176,1996,7273,"q",1,168,2,4,-0.813825211341897,0.591444737290011,19
30177,1996,7275,"q",1,260,4.5,3,1.26956732969336,-0.343183983365809,20
30178,1996,7274,"q",1,769,2,4,-0.813825211341897,0.591444737290011,21
30179,1996,7277,"q",1,429,1,5,-1.647182227756,1.52607345794583,22
30180,1996,7284,"q",1,503,4.5,4,1.26956732969336,0.591444737290011,23
30181,1996,7285,"q",1,534,3,4,0.0195318050722055,0.591444737290011,24
30182,1996,7283,"p",0,660,4,3.5,0.852888821486308,0.124130376962101,25
30183,1996,7287,"p",0,263,4,2,0.852888821486308,-1.27781270402163,26
30184,1996,7276,"q",1,190,3,2.5,0.0195318050722055,-0.810498343693718,27
30185,1996,7280,"p",0,290,4.5,2,1.26956732969336,-1.27781270402163,28
30186,1996,7288,"q",1,377,2,3,-0.813825211341897,-0.343183983365809,29
30187,1996,7278,"p",0,57,2,4,-0.813825211341897,0.591444737290011,30
30188,1996,7286,"p",0,263,2,4,-0.813825211341897,0.591444737290011,31
30221,1996,7289,"q",1,254,3,2.5,0.0195318050722055,-0.810498343693718,32
30222,1996,7301,"q",1,442,3.5,3.5,0.436210313279257,0.124130376962101,33
30223,1996,7295,"p",0,410,4,2.5,0.852888821486308,-0.810498343693718,34
30224,1996,7302,"q",1,33,2,4,-0.813825211341897,0.591444737290011,35
30225,1996,7293,"p",0,245,4,3.5,0.852888821486308,0.124130376962101,36
30226,1996,7294,"p",0,946,2,3.5,-0.813825211341897,0.124130376962101,37
30227,1996,7299,"q",1,277,4.5,2,1.26956732969336,-1.27781270402163,38
30228,1996,7292,"q",1,29,1.5,3.5,-1.23050371954895,0.124130376962101,39
30229,1996,7303,"q",1,284,3.5,4,0.436210313279257,0.591444737290011,40
30230,1996,7300,"q",1,320,1.5,4,-1.23050371954895,0.591444737290011,41
30231,1996,7296,"q",1,313,3,1.5,0.0195318050722055,-1.74512706434954,42
30232,1996,7298,"q",1,479,2,4,-0.813825211341897,0.591444737290011,43
30233,1996,7290,"q",1,244,2,4,-0.813825211341897,0.591444737290011,44
30234,1996,7304,"q",1,271,2,3,-0.813825211341897,-0.343183983365809,45
30235,1996,7297,"q",1,257,4,3.5,0.852888821486308,0.124130376962101,46
30236,1996,7291,"q",1,286,4.5,1.5,1.26956732969336,-1.74512706434954,47
30237,1996,7310,"q",1,310,4,4.5,0.852888821486308,1.05875909761792,48
30238,1996,7308,"p",0,324,4,3.5,0.852888821486308,0.124130376962101,49
30239,1996,7311,"q",1,245,2,3,-0.813825211341897,-0.343183983365809,50
30240,1996,7313,"q",1,284,3.5,2.5,0.436210313279257,-0.810498343693718,51
30241,1996,7318,"p",0,249,5,1.5,1.68624583790041,-1.74512706434954,52
30242,1996,7315,"p",0,265,5,2.5,1.68624583790041,-0.810498343693718,53
30243,1996,7309,"p",0,361,3.5,3.5,0.436210313279257,0.124130376962101,54
30244,1996,7305,"q",1,190,4.5,1.5,1.26956732969336,-1.74512706434954,55
30245,1996,7312,"q",1,162,1.5,3.5,-1.23050371954895,0.124130376962101,56
30246,1996,7306,"p",0,487,1.5,5,-1.23050371954895,1.52607345794583,57
30247,1996,7320,"q",1,276,2,5,-0.813825211341897,1.52607345794583,58
30248,1996,7307,"q",1,694,1.5,3.5,-1.23050371954895,0.124130376962101,59
30249,1996,7319,"p",0,254,4.5,3.5,1.26956732969336,0.124130376962101,60
30250,1996,7317,"q",1,78,2,5,-0.813825211341897,1.52607345794583,61
30251,1996,7314,"q",1,296,1,5,-1.647182227756,1.52607345794583,62
30252,1996,7316,"q",1,258,2,3,-0.813825211341897,-0.343183983365809,63
30127,1997,7257,"p",1,2855,2,4,-0.813825211341897,0.591444737290011,1
30129,1997,7261,"q",0,1995,2.5,5,-0.397146703134846,1.52607345794583,2
30131,1997,7267,"p",1,2140,2.5,4,-0.397146703134846,0.591444737290011,3
30133,1997,7260,"q",0,1818,3.5,1.5,0.436210313279257,-1.74512706434954,4
30135,1997,7265,"q",0,1619,2.5,4.5,-0.397146703134846,1.05875909761792,5
30137,1997,7270,"q",0,1617,1.5,4.5,-1.23050371954895,1.05875909761792,6
30139,1997,7263,"p",1,1408,4,4,0.852888821486308,0.591444737290011,7
30141,1997,7271,"q",0,2361,5,1,1.68624583790041,-2.21244142467745,8
30143,1997,7269,"p",1,1327,4,3.5,0.852888821486308,0.124130376962101,9
30145,1997,7259,"p",1,1068,3.5,3,0.436210313279257,-0.343183983365809,10
30146,1997,7264,"p",1,1355,2,4,-0.813825211341897,0.591444737290011,11
30148,1997,7268,"q",0,1519,3.5,4,0.436210313279257,0.591444737290011,12
30150,1997,7272,"q",0,1567,2,4,-0.813825211341897,0.591444737290011,13
30152,1997,7258,"q",0,1388,4.5,1.5,1.26956732969336,-1.74512706434954,14
30154,1997,7262,"q",0,1039,1,5,-1.647182227756,1.52607345794583,15
30156,1997,7266,"q",0,738,4.5,1.5,1.26956732969336,-1.74512706434954,16
30189,1997,7279,"q",0,2664,3,4,0.0195318050722055,0.591444737290011,17
30190,1997,7282,"q",0,1299,4.5,2,1.26956732969336,-1.27781270402163,18
30191,1997,7277,"q",0,1227,1,5,-1.647182227756,1.52607345794583,19
30192,1997,7278,"q",0,1432,2,4,-0.813825211341897,0.591444737290011,20
30193,1997,7275,"q",0,1424,4.5,3,1.26956732969336,-0.343183983365809,21
30194,1997,7273,"q",0,1723,2,4,-0.813825211341897,0.591444737290011,22
30195,1997,7284,"q",0,1785,4.5,4,1.26956732969336,0.591444737290011,23
30196,1997,7276,"q",0,1014,3,2.5,0.0195318050722055,-0.810498343693718,24
30197,1997,7280,"q",0,920,4.5,2,1.26956732969336,-1.27781270402163,25
30198,1997,7286,"p",1,2829,2,4,-0.813825211341897,0.591444737290011,26
30199,1997,7285,"p",1,1032,3,4,0.0195318050722055,0.591444737290011,27
30200,1997,7283,"p",1,1717,4,3.5,0.852888821486308,0.124130376962101,28
30201,1997,7287,"q",0,1083,4,2,0.852888821486308,-1.27781270402163,29
30202,1997,7281,"q",0,834,1.5,3,-1.23050371954895,-0.343183983365809,30
30203,1997,7288,"q",0,2009,2,3,-0.813825211341897,-0.343183983365809,31
30204,1997,7274,"q",0,1093,2,4,-0.813825211341897,0.591444737290011,32
30253,1997,7301,"q",0,1277,3.5,3.5,0.436210313279257,0.124130376962101,33
30254,1997,7292,"q",0,1033,1.5,3.5,-1.23050371954895,0.124130376962101,34
30255,1997,7299,"q",0,637,4.5,2,1.26956732969336,-1.27781270402163,35
30256,1997,7303,"p",1,1086,3.5,4,0.436210313279257,0.591444737290011,36
30257,1997,7298,"p",1,921,2,4,-0.813825211341897,0.591444737290011,37
30258,1997,7296,"q",0,1134,3,1.5,0.0195318050722055,-1.74512706434954,38
30259,1997,7294,"q",0,1315,2,3.5,-0.813825211341897,0.124130376962101,39
30260,1997,7302,"q",0,1088,2,4,-0.813825211341897,0.591444737290011,40
30261,1997,7291,"q",0,933,4.5,1.5,1.26956732969336,-1.74512706434954,41
30262,1997,7290,"q",0,627,2,4,-0.813825211341897,0.591444737290011,42
30263,1997,7297,"q",0,1274,4,3.5,0.852888821486308,0.124130376962101,43
30264,1997,7289,"q",0,1318,3,2.5,0.0195318050722055,-0.810498343693718,44
30265,1997,7304,"q",0,1077,2,3,-0.813825211341897,-0.343183983365809,45
30266,1997,7300,"q",0,617,1.5,4,-1.23050371954895,0.591444737290011,46
30267,1997,7293,"q",0,760,4,3.5,0.852888821486308,0.124130376962101,47
30268,1997,7295,"q",0,1659,4,2.5,0.852888821486308,-0.810498343693718,48
30301,1997,7310,"q",0,1375,4,4.5,0.852888821486308,1.05875909761792,49
30302,1997,7314,"q",0,1244,1,5,-1.647182227756,1.52607345794583,50
30303,1997,7315,"q",0,933,5,2.5,1.68624583790041,-0.810498343693718,51
30304,1997,7307,"q",0,1068,1.5,3.5,-1.23050371954895,0.124130376962101,52
30305,1997,7308,"q",0,2071,4,3.5,0.852888821486308,0.124130376962101,53
30306,1997,7311,"q",0,1371,2,3,-0.813825211341897,-0.343183983365809,54
30307,1997,7316,"q",0,597,2,3,-0.813825211341897,-0.343183983365809,55
30308,1997,7309,"q",0,531,3.5,3.5,0.436210313279257,0.124130376962101,56
30309,1997,7305,"q",0,743,4.5,1.5,1.26956732969336,-1.74512706434954,57
30310,1997,7312,"q",0,786,1.5,3.5,-1.23050371954895,0.124130376962101,58
30311,1997,7318,"q",0,683,5,1.5,1.68624583790041,-1.74512706434954,59
30312,1997,7319,"q",0,1059,4.5,3.5,1.26956732969336,0.124130376962101,60
30313,1997,7313,"p",1,1419,3.5,2.5,0.436210313279257,-0.810498343693718,61
30314,1997,7317,"p",1,1146,2,5,-0.813825211341897,1.52607345794583,62
30315,1997,7320,"p",1,926,2,5,-0.813825211341897,1.52607345794583,63
30316,1997,7306,"p",1,941,1.5,5,-1.23050371954895,1.52607345794583,64
30126,1998,7266,"q",1,2232,4.5,1.5,1.26956732969336,-1.74512706434954,1
30128,1998,7264,"p",0,1567,2,4,-0.813825211341897,0.591444737290011,2
30130,1998,7260,"p",0,1517,3.5,1.5,0.436210313279257,-1.74512706434954,3
30132,1998,7263,"p",0,3078,4,4,0.852888821486308,0.591444737290011,4
30134,1998,7261,"p",0,1743,2.5,5,-0.397146703134846,1.52607345794583,5
30136,1998,7269,"q",1,1492,4,3.5,0.852888821486308,0.124130376962101,6
30138,1998,7271,"q",1,1207,5,1,1.68624583790041,-2.21244142467745,7
30140,1998,7270,"p",0,1188,1.5,4.5,-1.23050371954895,1.05875909761792,8
30142,1998,7258,"p",0,1150,4.5,1.5,1.26956732969336,-1.74512706434954,9
30144,1998,7267,"p",0,1656,2.5,4,-0.397146703134846,0.591444737290011,10
30147,1998,7265,"p",0,1165,2.5,4.5,-0.397146703134846,1.05875909761792,11
30149,1998,7268,"p",0,1434,3.5,4,0.436210313279257,0.591444737290011,12
30151,1998,7257,"p",0,1358,2,4,-0.813825211341897,0.591444737290011,13
30153,1998,7262,"p",0,683,1,5,-1.647182227756,1.52607345794583,14
30155,1998,7259,"p",0,1047,3.5,3,0.436210313279257,-0.343183983365809,15
30157,1998,7272,"p",0,1365,2,4,-0.813825211341897,0.591444737290011,16
30205,1998,7279,"q",1,1831,3,4,0.0195318050722055,0.591444737290011,17
30206,1998,7287,"q",1,1009,4,2,0.852888821486308,-1.27781270402163,18
30207,1998,7284,"q",1,2220,4.5,4,1.26956732969336,0.591444737290011,19
30208,1998,7285,"q",1,1162,3,4,0.0195318050722055,0.591444737290011,20
30209,1998,7276,"q",1,1816,3,2.5,0.0195318050722055,-0.810498343693718,21
30210,1998,7274,"p",0,1101,2,4,-0.813825211341897,0.591444737290011,22
30211,1998,7280,"p",0,1882,4.5,2,1.26956732969336,-1.27781270402163,23
30212,1998,7288,"p",0,1281,2,3,-0.813825211341897,-0.343183983365809,24
30213,1998,7283,"q",1,3075,4,3.5,0.852888821486308,0.124130376962101,25
30214,1998,7278,"p",0,2938,2,4,-0.813825211341897,0.591444737290011,26
30215,1998,7273,"p",0,1218,2,4,-0.813825211341897,0.591444737290011,27
30216,1998,7282,"p",0,782,4.5,2,1.26956732969336,-1.27781270402163,28
30217,1998,7281,"p",0,1508,1.5,3,-1.23050371954895,-0.343183983365809,29
30218,1998,7275,"q",1,1616,4.5,3,1.26956732969336,-0.343183983365809,30
30219,1998,7277,"p",0,1120,1,5,-1.647182227756,1.52607345794583,31
30220,1998,7286,"p",0,838,2,4,-0.813825211341897,0.591444737290011,32
30269,1998,7299,"q",1,4127,4.5,2,1.26956732969336,-1.27781270402163,33
30270,1998,7292,"p",0,1124,1.5,3.5,-1.23050371954895,0.124130376962101,34
30271,1998,7298,"p",0,634,2,4,-0.813825211341897,0.591444737290011,35
30272,1998,7295,"p",0,1227,4,2.5,0.852888821486308,-0.810498343693718,36
30273,1998,7300,"p",0,818,1.5,4,-1.23050371954895,0.591444737290011,37
30274,1998,7304,"p",0,621,2,3,-0.813825211341897,-0.343183983365809,38
30275,1998,7294,"p",0,919,2,3.5,-0.813825211341897,0.124130376962101,39
30276,1998,7302,"p",0,816,2,4,-0.813825211341897,0.591444737290011,40
30277,1998,7301,"p",0,894,3.5,3.5,0.436210313279257,0.124130376962101,41
30278,1998,7289,"p",0,1115,3,2.5,0.0195318050722055,-0.810498343693718,42
30279,1998,7290,"p",0,713,2,4,-0.813825211341897,0.591444737290011,43
30280,1998,7296,"p",0,1076,3,1.5,0.0195318050722055,-1.74512706434954,44
30281,1998,7293,"p",0,1018,4,3.5,0.852888821486308,0.124130376962101,45
30282,1998,7291,"p",0,840,4.5,1.5,1.26956732969336,-1.74512706434954,46
30283,1998,7297,"p",0,1024,4,3.5,0.852888821486308,0.124130376962101,47
30284,1998,7303,"p",0,2707,3.5,4,0.436210313279257,0.591444737290011,48
30285,1998,7311,"p",0,1365,2,3,-0.813825211341897,-0.343183983365809,49
30286,1998,7305,"q",1,1388,4.5,1.5,1.26956732969336,-1.74512706434954,50
30287,1998,7319,"q",1,1036,4.5,3.5,1.26956732969336,0.124130376962101,51
30288,1998,7320,"p",0,968,2,5,-0.813825211341897,1.52607345794583,52
30289,1998,7310,"p",0,1679,4,4.5,0.852888821486308,1.05875909761792,53
30290,1998,7312,"p",0,880,1.5,3.5,-1.23050371954895,0.124130376962101,54
30291,1998,7315,"p",0,490,5,2.5,1.68624583790041,-0.810498343693718,55
30292,1998,7313,"p",0,278,3.5,2.5,0.436210313279257,-0.810498343693718,56
30293,1998,7316,"p",0,613,2,3,-0.813825211341897,-0.343183983365809,57
30294,1998,7308,"p",0,295,4,3.5,0.852888821486308,0.124130376962101,58
30295,1998,7317,"p",0,763,2,5,-0.813825211341897,1.52607345794583,59
30296,1998,7318,"p",0,778,5,1.5,1.68624583790041,-1.74512706434954,60
30297,1998,7309,"p",0,1367,3.5,3.5,0.436210313279257,0.124130376962101,61
30298,1998,7314,"p",0,908,1,5,-1.647182227756,1.52607345794583,62
30299,1998,7307,"p",0,1014,1.5,3.5,-1.23050371954895,0.124130376962101,63
30300,1998,7306,"p",0,906,1.5,5,-1.23050371954895,1.52607345794583,64
30317,2001,7263,"p",1,2563,4,4,0.852888821486308,0.591444737290011,1
30318,2001,7259,"p",1,1239,3.5,3,0.436210313279257,-0.343183983365809,2
30319,2001,7271,"p",1,1359,5,1,1.68624583790041,-2.21244142467745,3
30320,2001,7270,"p",1,1234,1.5,4.5,-1.23050371954895,1.05875909761792,4
30321,2001,7268,"p",1,1097,3.5,4,0.436210313279257,0.591444737290011,5
30322,2001,7262,"q",0,1068,1,5,-1.647182227756,1.52607345794583,6
30323,2001,7264,"q",0,1840,2,4,-0.813825211341897,0.591444737290011,7
30324,2001,7257,"p",1,1864,2,4,-0.813825211341897,0.591444737290011,8
30325,2001,7261,"p",1,1049,2.5,5,-0.397146703134846,1.52607345794583,9
30326,2001,7265,"q",0,1500,2.5,4.5,-0.397146703134846,1.05875909761792,10
30327,2001,7260,"q",0,1819,3.5,1.5,0.436210313279257,-1.74512706434954,11
30328,2001,7267,"p",1,2384,2.5,4,-0.397146703134846,0.591444737290011,12
30329,2001,7269,"p",1,1207,4,3.5,0.852888821486308,0.124130376962101,13
30330,2001,7266,"p",1,1567,4.5,1.5,1.26956732969336,-1.74512706434954,14
30331,2001,7258,"p",1,3224,4.5,1.5,1.26956732969336,-1.74512706434954,15
30332,2001,7272,"q",0,1748,2,4,-0.813825211341897,0.591444737290011,16
30349,2001,7274,"p",1,1582,2,4,-0.813825211341897,0.591444737290011,17
30350,2001,7283,"q",0,2724,4,3.5,0.852888821486308,0.124130376962101,18
30351,2001,7281,"q",0,2475,1.5,3,-1.23050371954895,-0.343183983365809,19
30352,2001,7280,"p",1,2754,4.5,2,1.26956732969336,-1.27781270402163,20
30353,2001,7273,"q",0,1353,2,4,-0.813825211341897,0.591444737290011,21
30354,2001,7286,"q",0,1525,2,4,-0.813825211341897,0.591444737290011,22
30355,2001,7276,"p",1,1068,3,2.5,0.0195318050722055,-0.810498343693718,23
30356,2001,7288,"p",1,1373,2,3,-0.813825211341897,-0.343183983365809,24
30357,2001,7275,"p",1,1090,4.5,3,1.26956732969336,-0.343183983365809,25
30358,2001,7284,"p",1,1361,4.5,4,1.26956732969336,0.591444737290011,26
30359,2001,7277,"q",0,919,1,5,-1.647182227756,1.52607345794583,27
30360,2001,7278,"q",0,1881,2,4,-0.813825211341897,0.591444737290011,28
30361,2001,7285,"p",1,1516,3,4,0.0195318050722055,0.591444737290011,29
30362,2001,7282,"q",0,1074,4.5,2,1.26956732969336,-1.27781270402163,30
30363,2001,7279,"q",0,1591,3,4,0.0195318050722055,0.591444737290011,31
30364,2001,7287,"p",1,875,4,2,0.852888821486308,-1.27781270402163,32
30397,2001,7297,"p",1,1111,4,3.5,0.852888821486308,0.124130376962101,33
30398,2001,7301,"p",1,915,3.5,3.5,0.436210313279257,0.124130376962101,34
30399,2001,7300,"q",0,1089,1.5,4,-1.23050371954895,0.591444737290011,35
30400,2001,7296,"q",0,966,3,1.5,0.0195318050722055,-1.74512706434954,36
30401,2001,7292,"q",0,833,1.5,3.5,-1.23050371954895,0.124130376962101,37
30402,2001,7303,"q",0,1455,3.5,4,0.436210313279257,0.591444737290011,38
30403,2001,7290,"q",0,704,2,4,-0.813825211341897,0.591444737290011,39
30404,2001,7294,"q",0,1266,2,3.5,-0.813825211341897,0.124130376962101,40
30405,2001,7295,"p",1,1896,4,2.5,0.852888821486308,-0.810498343693718,41
30406,2001,7304,"p",1,3944,2,3,-0.813825211341897,-0.343183983365809,42
30407,2001,7291,"p",1,826,4.5,1.5,1.26956732969336,-1.74512706434954,43
30408,2001,7299,"p",1,1551,4.5,2,1.26956732969336,-1.27781270402163,44
30409,2001,7298,"q",0,411,2,4,-0.813825211341897,0.591444737290011,45
30410,2001,7293,"q",0,1043,4,3.5,0.852888821486308,0.124130376962101,46
30411,2001,7302,"q",0,765,2,4,-0.813825211341897,0.591444737290011,47
30412,2001,7289,"q",0,924,3,2.5,0.0195318050722055,-0.810498343693718,48
30476,2001,7310,"p",1,1302,4,4.5,0.852888821486308,1.05875909761792,49
30477,2001,7319,"p",1,1030,4.5,3.5,1.26956732969336,0.124130376962101,50
30478,2001,7314,"q",0,762,1,5,-1.647182227756,1.52607345794583,51
30479,2001,7308,"p",1,1868,4,3.5,0.852888821486308,0.124130376962101,52
30480,2001,7313,"p",1,735,3.5,2.5,0.436210313279257,-0.810498343693718,53
30481,2001,7311,"q",0,832,2,3,-0.813825211341897,-0.343183983365809,54
30482,2001,7317,"q",0,911,2,5,-0.813825211341897,1.52607345794583,55
30483,2001,7307,"q",0,2188,1.5,3.5,-1.23050371954895,0.124130376962101,56
30484,2001,7306,"q",0,1105,1.5,5,-1.23050371954895,1.52607345794583,57
30485,2001,7320,"q",0,665,2,5,-0.813825211341897,1.52607345794583,58
30486,2001,7305,"p",1,1027,4.5,1.5,1.26956732969336,-1.74512706434954,59
30487,2001,7318,"p",1,2369,5,1.5,1.68624583790041,-1.74512706434954,60
30488,2001,7309,"p",1,1200,3.5,3.5,0.436210313279257,0.124130376962101,61
30489,2001,7312,"q",0,657,1.5,3.5,-1.23050371954895,0.124130376962101,62
30490,2001,7315,"q",0,1667,5,2.5,1.68624583790041,-0.810498343693718,63
30491,2001,7316,"q",0,2181,2,3,-0.813825211341897,-0.343183983365809,64
30333,2002,7266,"q",1,4422,4.5,1.5,1.26956732969336,-1.74512706434954,1
30334,2002,7261,"q",1,2654,2.5,5,-0.397146703134846,1.52607345794583,2
30335,2002,7262,"p",0,4094,1,5,-1.647182227756,1.52607345794583,3
30336,2002,7272,"q",1,1027,2,4,-0.813825211341897,0.591444737290011,4
30337,2002,7260,"p",0,1750,3.5,1.5,0.436210313279257,-1.74512706434954,5
30338,2002,7271,"q",1,1023,5,1,1.68624583790041,-2.21244142467745,6
30339,2002,7270,"p",0,2302,1.5,4.5,-1.23050371954895,1.05875909761792,7
30340,2002,7267,"q",1,1417,2.5,4,-0.397146703134846,0.591444737290011,8
30341,2002,7268,"q",1,1436,3.5,4,0.436210313279257,0.591444737290011,9
30342,2002,7258,"p",0,1164,4.5,1.5,1.26956732969336,-1.74512706434954,10
30343,2002,7264,"q",1,811,2,4,-0.813825211341897,0.591444737290011,11
30344,2002,7269,"q",1,1684,4,3.5,0.852888821486308,0.124130376962101,12
30345,2002,7259,"q",1,1236,3.5,3,0.436210313279257,-0.343183983365809,13
30346,2002,7263,"q",1,1660,4,4,0.852888821486308,0.591444737290011,14
30347,2002,7257,"q",1,2752,2,4,-0.813825211341897,0.591444737290011,15
30348,2002,7265,"p",0,1357,2.5,4.5,-0.397146703134846,1.05875909761792,16
30365,2002,7278,"p",0,1437,2,4,-0.813825211341897,0.591444737290011,17
30366,2002,7288,"q",1,978,2,3,-0.813825211341897,-0.343183983365809,18
30367,2002,7283,"q",1,1960,4,3.5,0.852888821486308,0.124130376962101,19
30368,2002,7284,"q",1,2511,4.5,4,1.26956732969336,0.591444737290011,20
30369,2002,7280,"p",0,2487,4.5,2,1.26956732969336,-1.27781270402163,21
30370,2002,7279,"q",1,1082,3,4,0.0195318050722055,0.591444737290011,22
30371,2002,7277,"p",0,1523,1,5,-1.647182227756,1.52607345794583,23
30372,2002,7282,"q",1,1349,4.5,2,1.26956732969336,-1.27781270402163,24
30373,2002,7276,"q",1,1929,3,2.5,0.0195318050722055,-0.810498343693718,25
30374,2002,7281,"p",0,1159,1.5,3,-1.23050371954895,-0.343183983365809,26
30375,2002,7275,"q",1,1571,4.5,3,1.26956732969336,-0.343183983365809,27
30376,2002,7274,"q",1,1563,2,4,-0.813825211341897,0.591444737290011,28
30377,2002,7285,"q",1,893,3,4,0.0195318050722055,0.591444737290011,29
30378,2002,7286,"q",1,2447,2,4,-0.813825211341897,0.591444737290011,30
30379,2002,7287,"q",1,1502,4,2,0.852888821486308,-1.27781270402163,31
30380,2002,7273,"q",1,1352,2,4,-0.813825211341897,0.591444737290011,32
30429,2002,7290,"p",0,1190,2,4,-0.813825211341897,0.591444737290011,33
30430,2002,7295,"q",1,1630,4,2.5,0.852888821486308,-0.810498343693718,34
30431,2002,7300,"p",0,919,1.5,4,-1.23050371954895,0.591444737290011,35
30432,2002,7289,"q",1,806,3,2.5,0.0195318050722055,-0.810498343693718,36
30433,2002,7297,"q",1,1078,4,3.5,0.852888821486308,0.124130376962101,37
30434,2002,7299,"q",1,1781,4.5,2,1.26956732969336,-1.27781270402163,38
30435,2002,7302,"q",1,772,2,4,-0.813825211341897,0.591444737290011,39
30436,2002,7294,"q",1,1190,2,3.5,-0.813825211341897,0.124130376962101,40
30437,2002,7303,"q",1,830,3.5,4,0.436210313279257,0.591444737290011,41
30438,2002,7304,"q",1,988,2,3,-0.813825211341897,-0.343183983365809,42
30439,2002,7293,"q",1,570,4,3.5,0.852888821486308,0.124130376962101,43
30440,2002,7301,"q",1,148,3.5,3.5,0.436210313279257,0.124130376962101,44
30441,2002,7298,"q",1,415,2,4,-0.813825211341897,0.591444737290011,45
30442,2002,7291,"q",1,298,4.5,1.5,1.26956732969336,-1.74512706434954,46
30443,2002,7296,"q",1,557,3,1.5,0.0195318050722055,-1.74512706434954,47
30444,2002,7292,"p",0,937,1.5,3.5,-1.23050371954895,0.124130376962101,48
30445,2002,7314,"q",1,69,1,5,-1.647182227756,1.52607345794583,49
30446,2002,7307,"p",0,605,1.5,3.5,-1.23050371954895,0.124130376962101,50
30447,2002,7317,"q",1,1659,2,5,-0.813825211341897,1.52607345794583,51
30448,2002,7310,"q",1,496,4,4.5,0.852888821486308,1.05875909761792,52
30449,2002,7313,"q",1,447,3.5,2.5,0.436210313279257,-0.810498343693718,53
30450,2002,7311,"q",1,477,2,3,-0.813825211341897,-0.343183983365809,54
30451,2002,7312,"q",1,575,1.5,3.5,-1.23050371954895,0.124130376962101,55
30452,2002,7319,"q",1,567,4.5,3.5,1.26956732969336,0.124130376962101,56
30453,2002,7315,"q",1,689,5,2.5,1.68624583790041,-0.810498343693718,57
30454,2002,7316,"q",1,536,2,3,-0.813825211341897,-0.343183983365809,58
30455,2002,7320,"q",1,363,2,5,-0.813825211341897,1.52607345794583,59
30456,2002,7308,"q",1,296,4,3.5,0.852888821486308,0.124130376962101,60
30457,2002,7318,"q",1,262,5,1.5,1.68624583790041,-1.74512706434954,61
30458,2002,7305,"q",1,421,4.5,1.5,1.26956732969336,-1.74512706434954,62
30459,2002,7309,"q",1,311,3.5,3.5,0.436210313279257,0.124130376962101,63
30460,2002,7306,"q",1,275,1.5,5,-1.23050371954895,1.52607345794583,64
30381,2004,7261,"q",1,5444,2.5,5,-0.397146703134846,1.52607345794583,1
30382,2004,7269,"q",1,1887,4,3.5,0.852888821486308,0.124130376962101,2
30383,2004,7262,"p",0,1226,1,5,-1.647182227756,1.52607345794583,3
30384,2004,7267,"q",1,2399,2.5,4,-0.397146703134846,0.591444737290011,4
30385,2004,7268,"q",1,2303,3.5,4,0.436210313279257,0.591444737290011,5
30386,2004,7265,"p",0,1229,2.5,4.5,-0.397146703134846,1.05875909761792,6
30387,2004,7264,"q",1,1694,2,4,-0.813825211341897,0.591444737290011,7
30388,2004,7271,"q",1,906,5,1,1.68624583790041,-2.21244142467745,8
30389,2004,7259,"q",1,1246,3.5,3,0.436210313279257,-0.343183983365809,9
30390,2004,7263,"q",1,1786,4,4,0.852888821486308,0.591444737290011,10
30391,2004,7272,"p",0,1566,2,4,-0.813825211341897,0.591444737290011,11
30392,2004,7266,"q",1,1407,4.5,1.5,1.26956732969336,-1.74512706434954,12
30393,2004,7257,"p",0,2782,2,4,-0.813825211341897,0.591444737290011,13
30394,2004,7258,"q",1,1599,4.5,1.5,1.26956732969336,-1.74512706434954,14
30395,2004,7260,"q",1,1559,3.5,1.5,0.436210313279257,-1.74512706434954,15
30396,2004,7270,"p",0,1055,1.5,4.5,-1.23050371954895,1.05875909761792,16
30492,2004,7286,"q",1,1662,2,4,-0.813825211341897,0.591444737290011,17
30493,2004,7284,"q",1,1274,4.5,4,1.26956732969336,0.591444737290011,18
30494,2004,7278,"q",1,1963,2,4,-0.813825211341897,0.591444737290011,19
30495,2004,7279,"q",1,1880,3,4,0.0195318050722055,0.591444737290011,20
30496,2004,7280,"q",1,1170,4.5,2,1.26956732969336,-1.27781270402163,21
30497,2004,7273,"p",0,2875,2,4,-0.813825211341897,0.591444737290011,22
30498,2004,7277,"p",0,857,1,5,-1.647182227756,1.52607345794583,23
30499,2004,7287,"q",1,923,4,2,0.852888821486308,-1.27781270402163,24
30500,2004,7275,"q",1,1347,4.5,3,1.26956732969336,-0.343183983365809,25
30501,2004,7282,"q",1,1820,4.5,2,1.26956732969336,-1.27781270402163,26
30502,2004,7274,"p",0,1844,2,4,-0.813825211341897,0.591444737290011,27
30503,2004,7281,"q",1,1748,1.5,3,-1.23050371954895,-0.343183983365809,28
30504,2004,7285,"q",1,1101,3,4,0.0195318050722055,0.591444737290011,29
30505,2004,7276,"q",1,2156,3,2.5,0.0195318050722055,-0.810498343693718,30
30506,2004,7288,"p",0,2118,2,3,-0.813825211341897,-0.343183983365809,31
30507,2004,7283,"q",1,1724,4,3.5,0.852888821486308,0.124130376962101,32
30524,2004,7301,"q",1,1387,3.5,3.5,0.436210313279257,0.124130376962101,33
30525,2004,7291,"q",1,993,4.5,1.5,1.26956732969336,-1.74512706434954,34
30526,2004,7295,"q",1,778,4,2.5,0.852888821486308,-0.810498343693718,35
30527,2004,7299,"q",1,1044,4.5,2,1.26956732969336,-1.27781270402163,36
30528,2004,7298,"p",0,1038,2,4,-0.813825211341897,0.591444737290011,37
30529,2004,7300,"p",0,1001,1.5,4,-1.23050371954895,0.591444737290011,38
30530,2004,7290,"p",0,748,2,4,-0.813825211341897,0.591444737290011,39
30531,2004,7293,"q",1,1362,4,3.5,0.852888821486308,0.124130376962101,40
30532,2004,7294,"p",0,1565,2,3.5,-0.813825211341897,0.124130376962101,41
30533,2004,7302,"q",1,1230,2,4,-0.813825211341897,0.591444737290011,42
30534,2004,7292,"p",0,976,1.5,3.5,-1.23050371954895,0.124130376962101,43
30535,2004,7289,"p",0,1858,3,2.5,0.0195318050722055,-0.810498343693718,44
30536,2004,7304,"q",1,1641,2,3,-0.813825211341897,-0.343183983365809,45
30537,2004,7296,"q",1,1109,3,1.5,0.0195318050722055,-1.74512706434954,46
30538,2004,7303,"q",1,1220,3.5,4,0.436210313279257,0.591444737290011,47
30539,2004,7297,"q",1,1253,4,3.5,0.852888821486308,0.124130376962101,48
30588,2004,7310,"q",1,2007,4,4.5,0.852888821486308,1.05875909761792,49
30589,2004,7315,"q",1,1000,5,2.5,1.68624583790041,-0.810498343693718,50
30590,2004,7311,"q",1,1598,2,3,-0.813825211341897,-0.343183983365809,51
30591,2004,7316,"p",0,1026,2,3,-0.813825211341897,-0.343183983365809,52
30592,2004,7312,"q",1,2312,1.5,3.5,-1.23050371954895,0.124130376962101,53
30593,2004,7308,"q",1,939,4,3.5,0.852888821486308,0.124130376962101,54
30594,2004,7314,"p",0,1298,1,5,-1.647182227756,1.52607345794583,55
30595,2004,7307,"p",0,2631,1.5,3.5,-1.23050371954895,0.124130376962101,56
30596,2004,7313,"q",1,1542,3.5,2.5,0.436210313279257,-0.810498343693718,57
30597,2004,7317,"q",1,1784,2,5,-0.813825211341897,1.52607345794583,58
30598,2004,7320,"p",0,1049,2,5,-0.813825211341897,1.52607345794583,59
30599,2004,7319,"q",1,1574,4.5,3.5,1.26956732969336,0.124130376962101,60
30600,2004,7318,"q",1,1030,5,1.5,1.68624583790041,-1.74512706434954,61
30601,2004,7309,"q",1,1154,3.5,3.5,0.436210313279257,0.124130376962101,62
30602,2004,7305,"q",1,1017,4.5,1.5,1.26956732969336,-1.74512706434954,63
30603,2004,7306,"p",0,897,1.5,5,-1.23050371954895,1.52607345794583,64
30604,2015,7265,"q",0,4971,2.5,4.5,-0.397146703134846,1.05875909761792,1
30605,2015,7257,"p",1,3407,2,4,-0.813825211341897,0.591444737290011,2
30606,2015,7262,"q",0,1106,1,5,-1.647182227756,1.52607345794583,3
30607,2015,7259,"p",1,1851,3.5,3,0.436210313279257,-0.343183983365809,4
30608,2015,7261,"p",1,1151,2.5,5,-0.397146703134846,1.52607345794583,5
30609,2015,7270,"p",1,1044,1.5,4.5,-1.23050371954895,1.05875909761792,6
30610,2015,7271,"p",1,907,5,1,1.68624583790041,-2.21244142467745,7
30611,2015,7266,"p",1,2540,4.5,1.5,1.26956732969336,-1.74512706434954,8
30612,2015,7268,"p",1,1181,3.5,4,0.436210313279257,0.591444737290011,9
30613,2015,7263,"p",1,1385,4,4,0.852888821486308,0.591444737290011,10
30614,2015,7258,"p",1,1569,4.5,1.5,1.26956732969336,-1.74512706434954,11
30615,2015,7269,"p",1,2073,4,3.5,0.852888821486308,0.124130376962101,12
30616,2015,7272,"p",1,1550,2,4,-0.813825211341897,0.591444737290011,13
30617,2015,7264,"p",1,1070,2,4,-0.813825211341897,0.591444737290011,14
30618,2015,7260,"p",1,1482,3.5,1.5,0.436210313279257,-1.74512706434954,15
30619,2015,7267,"p",1,2429,2.5,4,-0.397146703134846,0.591444737290011,16
30684,2015,7287,"p",1,2184,4,2,0.852888821486308,-1.27781270402163,17
30685,2015,7278,"p",1,1503,2,4,-0.813825211341897,0.591444737290011,18
30686,2015,7286,"p",1,722,2,4,-0.813825211341897,0.591444737290011,19
30687,2015,7277,"q",0,1401,1,5,-1.647182227756,1.52607345794583,20
30688,2015,7273,"q",0,1669,2,4,-0.813825211341897,0.591444737290011,21
30689,2015,7282,"p",1,1167,4.5,2,1.26956732969336,-1.27781270402163,22
30690,2015,7288,"p",1,904,2,3,-0.813825211341897,-0.343183983365809,23
30691,2015,7284,"p",1,1120,4.5,4,1.26956732969336,0.591444737290011,24
30692,2015,7285,"p",1,1558,3,4,0.0195318050722055,0.591444737290011,25
30693,2015,7281,"p",1,823,1.5,3,-1.23050371954895,-0.343183983365809,26
30694,2015,7283,"p",1,2523,4,3.5,0.852888821486308,0.124130376962101,27
30695,2015,7280,"p",1,2590,4.5,2,1.26956732969336,-1.27781270402163,28
30696,2015,7275,"p",1,1332,4.5,3,1.26956732969336,-0.343183983365809,29
30697,2015,7274,"p",1,1031,2,4,-0.813825211341897,0.591444737290011,30
30698,2015,7279,"p",1,1421,3,4,0.0195318050722055,0.591444737290011,31
30699,2015,7276,"p",1,873,3,2.5,0.0195318050722055,-0.810498343693718,32
30732,2015,7292,"q",0,2011,1.5,3.5,-1.23050371954895,0.124130376962101,33
30733,2015,7296,"p",1,1128,3,1.5,0.0195318050722055,-1.74512706434954,34
30734,2015,7303,"p",1,1118,3.5,4,0.436210313279257,0.591444737290011,35
30735,2015,7304,"p",1,1338,2,3,-0.813825211341897,-0.343183983365809,36
30736,2015,7291,"p",1,1292,4.5,1.5,1.26956732969336,-1.74512706434954,37
30737,2015,7289,"p",1,1577,3,2.5,0.0195318050722055,-0.810498343693718,38
30738,2015,7302,"p",1,1588,2,4,-0.813825211341897,0.591444737290011,39
30739,2015,7295,"p",1,839,4,2.5,0.852888821486308,-0.810498343693718,40
30740,2015,7294,"q",0,2011,2,3.5,-0.813825211341897,0.124130376962101,41
30741,2015,7298,"q",0,1040,2,4,-0.813825211341897,0.591444737290011,42
30742,2015,7297,"p",1,5310,4,3.5,0.852888821486308,0.124130376962101,43
30743,2015,7300,"q",0,1271,1.5,4,-1.23050371954895,0.591444737290011,44
30744,2015,7299,"p",1,1288,4.5,2,1.26956732969336,-1.27781270402163,45
30745,2015,7301,"p",1,1132,3.5,3.5,0.436210313279257,0.124130376962101,46
30746,2015,7290,"q",0,951,2,4,-0.813825211341897,0.591444737290011,47
30747,2015,7293,"q",0,1384,4,3.5,0.852888821486308,0.124130376962101,48
30796,2015,7315,"p",1,3975,5,2.5,1.68624583790041,-0.810498343693718,49
30797,2015,7318,"p",1,2494,5,1.5,1.68624583790041,-1.74512706434954,50
30798,2015,7310,"q",0,3426,4,4.5,0.852888821486308,1.05875909761792,51
30799,2015,7311,"q",0,844,2,3,-0.813825211341897,-0.343183983365809,52
30800,2015,7309,"p",1,1364,3.5,3.5,0.436210313279257,0.124130376962101,53
30801,2015,7314,"p",1,1400,1,5,-1.647182227756,1.52607345794583,54
30802,2015,7305,"p",1,1400,4.5,1.5,1.26956732969336,-1.74512706434954,55
30803,2015,7308,"p",1,3473,4,3.5,0.852888821486308,0.124130376962101,56
30804,2015,7312,"p",1,1196,1.5,3.5,-1.23050371954895,0.124130376962101,57
30805,2015,7320,"p",1,718,2,5,-0.813825211341897,1.52607345794583,58
30806,2015,7317,"p",1,696,2,5,-0.813825211341897,1.52607345794583,59
30807,2015,7319,"p",1,1157,4.5,3.5,1.26956732969336,0.124130376962101,60
30808,2015,7307,"p",1,1666,1.5,3.5,-1.23050371954895,0.124130376962101,61
30809,2015,7313,"p",1,778,3.5,2.5,0.436210313279257,-0.810498343693718,62
30810,2015,7316,"q",0,811,2,3,-0.813825211341897,-0.343183983365809,63
30811,2015,7306,"p",1,918,1.5,5,-1.23050371954895,1.52607345794583,64
30652,2020,7271,"p",0,5706,5,1,1.68624583790041,-2.21244142467745,1
30653,2020,7269,"p",0,2852,4,3.5,0.852888821486308,0.124130376962101,2
30654,2020,7272,"q",1,4150,2,4,-0.813825211341897,0.591444737290011,3
30655,2020,7260,"q",1,1477,3.5,1.5,0.436210313279257,-1.74512706434954,4
30656,2020,7265,"q",1,1018,2.5,4.5,-0.397146703134846,1.05875909761792,5
30657,2020,7258,"p",0,1685,4.5,1.5,1.26956732969336,-1.74512706434954,6
30658,2020,7259,"q",1,978,3.5,3,0.436210313279257,-0.343183983365809,7
30659,2020,7261,"q",1,912,2.5,5,-0.397146703134846,1.52607345794583,8
30660,2020,7257,"q",1,4709,2,4,-0.813825211341897,0.591444737290011,9
30661,2020,7263,"q",1,1507,4,4,0.852888821486308,0.591444737290011,10
30662,2020,7267,"q",1,982,2.5,4,-0.397146703134846,0.591444737290011,11
30663,2020,7262,"q",1,775,1,5,-1.647182227756,1.52607345794583,12
30664,2020,7268,"p",0,1141,3.5,4,0.436210313279257,0.591444737290011,13
30665,2020,7270,"q",1,1459,1.5,4.5,-1.23050371954895,1.05875909761792,14
30666,2020,7266,"p",0,1120,4.5,1.5,1.26956732969336,-1.74512706434954,15
30667,2020,7264,"q",1,782,2,4,-0.813825211341897,0.591444737290011,16
30700,2020,7280,"p",0,1608,4.5,2,1.26956732969336,-1.27781270402163,17
30701,2020,7274,"q",1,716,2,4,-0.813825211341897,0.591444737290011,18
30702,2020,7283,"q",1,1356,4,3.5,0.852888821486308,0.124130376962101,19
30703,2020,7281,"q",1,985,1.5,3,-1.23050371954895,-0.343183983365809,20
30704,2020,7288,"q",1,792,2,3,-0.813825211341897,-0.343183983365809,21
30705,2020,7276,"q",1,854,3,2.5,0.0195318050722055,-0.810498343693718,22
30706,2020,7285,"q",1,794,3,4,0.0195318050722055,0.591444737290011,23
30707,2020,7282,"p",0,1039,4.5,2,1.26956732969336,-1.27781270402163,24
30708,2020,7277,"q",1,911,1,5,-1.647182227756,1.52607345794583,25
30709,2020,7275,"q",1,1199,4.5,3,1.26956732969336,-0.343183983365809,26
30710,2020,7287,"q",1,1357,4,2,0.852888821486308,-1.27781270402163,27
30711,2020,7278,"q",1,1209,2,4,-0.813825211341897,0.591444737290011,28
30712,2020,7273,"q",1,1151,2,4,-0.813825211341897,0.591444737290011,29
30713,2020,7284,"q",1,1118,4.5,4,1.26956732969336,0.591444737290011,30
30714,2020,7279,"p",0,1520,3,4,0.0195318050722055,0.591444737290011,31
30715,2020,7286,"q",1,1039,2,4,-0.813825211341897,0.591444737290011,32
30748,2020,7297,"q",1,997,4,3.5,0.852888821486308,0.124130376962101,33
30749,2020,7293,"q",1,988,4,3.5,0.852888821486308,0.124130376962101,34
30750,2020,7290,"q",1,799,2,4,-0.813825211341897,0.591444737290011,35
30751,2020,7299,"q",1,1541,4.5,2,1.26956732969336,-1.27781270402163,36
30752,2020,7289,"q",1,964,3,2.5,0.0195318050722055,-0.810498343693718,37
30753,2020,7301,"p",0,1910,3.5,3.5,0.436210313279257,0.124130376962101,38
30754,2020,7304,"q",1,1362,2,3,-0.813825211341897,-0.343183983365809,39
30755,2020,7295,"q",1,985,4,2.5,0.852888821486308,-0.810498343693718,40
30756,2020,7298,"q",1,821,2,4,-0.813825211341897,0.591444737290011,41
30757,2020,7302,"p",0,1843,2,4,-0.813825211341897,0.591444737290011,42
30758,2020,7303,"q",1,1043,3.5,4,0.436210313279257,0.591444737290011,43
30759,2020,7296,"q",1,1121,3,1.5,0.0195318050722055,-1.74512706434954,44
30760,2020,7292,"p",0,1129,1.5,3.5,-1.23050371954895,0.124130376962101,45
30761,2020,7291,"p",0,1407,4.5,1.5,1.26956732969336,-1.74512706434954,46
30762,2020,7300,"q",1,1291,1.5,4,-1.23050371954895,0.591444737290011,47
30763,2020,7294,"q",1,919,2,3.5,-0.813825211341897,0.124130376962101,48
30780,2020,7312,"q",1,891,1.5,3.5,-1.23050371954895,0.124130376962101,49
30781,2020,7317,"q",1,701,2,5,-0.813825211341897,1.52607345794583,50
30782,2020,7313,"q",1,1017,3.5,2.5,0.436210313279257,-0.810498343693718,51
30783,2020,7314,"q",1,1249,1,5,-1.647182227756,1.52607345794583,52
30784,2020,7306,"q",1,781,1.5,5,-1.23050371954895,1.52607345794583,53
30785,2020,7316,"q",1,804,2,3,-0.813825211341897,-0.343183983365809,54
30786,2020,7318,"q",1,905,5,1.5,1.68624583790041,-1.74512706434954,55
30787,2020,7310,"p",0,1321,4,4.5,0.852888821486308,1.05875909761792,56
30788,2020,7319,"p",0,1583,4.5,3.5,1.26956732969336,0.124130376962101,57
30789,2020,7305,"q",1,931,4.5,1.5,1.26956732969336,-1.74512706434954,58
30790,2020,7307,"q",1,652,1.5,3.5,-1.23050371954895,0.124130376962101,59
30791,2020,7308,"q",1,1038,4,3.5,0.852888821486308,0.124130376962101,60
30792,2020,7311,"q",1,1648,2,3,-0.813825211341897,-0.343183983365809,61
30793,2020,7320,"q",1,682,2,5,-0.813825211341897,1.52607345794583,62
30794,2020,7309,"q",1,1606,3.5,3.5,0.436210313279257,0.124130376962101,63
30795,2020,7315,"p",0,1118,5,2.5,1.68624583790041,-0.810498343693718,64
30668,2021,7257,"q",0,853,2,4,-0.813825211341897,0.591444737290011,1
30669,2021,7267,"p",1,1304,2.5,4,-0.397146703134846,0.591444737290011,2
30670,2021,7260,"p",1,814,3.5,1.5,0.436210313279257,-1.74512706434954,3
30671,2021,7259,"p",1,921,3.5,3,0.436210313279257,-0.343183983365809,4
30672,2021,7262,"q",0,1128,1,5,-1.647182227756,1.52607345794583,5
30673,2021,7261,"p",1,1296,2.5,5,-0.397146703134846,1.52607345794583,6
30674,2021,7263,"p",1,1298,4,4,0.852888821486308,0.591444737290011,7
30675,2021,7266,"p",1,1057,4.5,1.5,1.26956732969336,-1.74512706434954,8
30676,2021,7272,"q",0,1094,2,4,-0.813825211341897,0.591444737290011,9
30677,2021,7258,"p",1,3497,4.5,1.5,1.26956732969336,-1.74512706434954,10
30678,2021,7268,"p",1,1897,3.5,4,0.436210313279257,0.591444737290011,11
30679,2021,7265,"q",0,2076,2.5,4.5,-0.397146703134846,1.05875909761792,12
30680,2021,7270,"q",0,2282,1.5,4.5,-1.23050371954895,1.05875909761792,13
30681,2021,7264,"p",1,1663,2,4,-0.813825211341897,0.591444737290011,14
30682,2021,7271,"p",1,1041,5,1,1.68624583790041,-2.21244142467745,15
30683,2021,7269,"p",1,876,4,3.5,0.852888821486308,0.124130376962101,16
30716,2021,7276,"p",1,1871,3,2.5,0.0195318050722055,-0.810498343693718,17
30717,2021,7287,"p",1,896,4,2,0.852888821486308,-1.27781270402163,18
30718,2021,7281,"q",0,1265,1.5,3,-1.23050371954895,-0.343183983365809,19
30719,2021,7288,"p",1,1132,2,3,-0.813825211341897,-0.343183983365809,20
30720,2021,7285,"p",1,1326,3,4,0.0195318050722055,0.591444737290011,21
30721,2021,7286,"q",0,1048,2,4,-0.813825211341897,0.591444737290011,22
30722,2021,7280,"p",1,1165,4.5,2,1.26956732969336,-1.27781270402163,23
30723,2021,7278,"p",1,1351,2,4,-0.813825211341897,0.591444737290011,24
30724,2021,7283,"p",1,2181,4,3.5,0.852888821486308,0.124130376962101,25
30725,2021,7284,"p",1,1244,4.5,4,1.26956732969336,0.591444737290011,26
30726,2021,7275,"p",1,1288,4.5,3,1.26956732969336,-0.343183983365809,27
30727,2021,7274,"p",1,645,2,4,-0.813825211341897,0.591444737290011,28
30728,2021,7273,"q",0,1380,2,4,-0.813825211341897,0.591444737290011,29
30729,2021,7279,"p",1,1784,3,4,0.0195318050722055,0.591444737290011,30
30730,2021,7282,"q",0,1995,4.5,2,1.26956732969336,-1.27781270402163,31
30731,2021,7277,"q",0,1056,1,5,-1.647182227756,1.52607345794583,32
30764,2021,7295,"p",1,855,4,2.5,0.852888821486308,-0.810498343693718,33
30765,2021,7293,"p",1,1374,4,3.5,0.852888821486308,0.124130376962101,34
30766,2021,7302,"q",0,1514,2,4,-0.813825211341897,0.591444737290011,35
30767,2021,7297,"p",1,2261,4,3.5,0.852888821486308,0.124130376962101,36
30768,2021,7292,"q",0,2288,1.5,3.5,-1.23050371954895,0.124130376962101,37
30769,2021,7290,"q",0,998,2,4,-0.813825211341897,0.591444737290011,38
30770,2021,7301,"p",1,1373,3.5,3.5,0.436210313279257,0.124130376962101,39
30771,2021,7289,"p",1,1278,3,2.5,0.0195318050722055,-0.810498343693718,40
30772,2021,7299,"p",1,1405,4.5,2,1.26956732969336,-1.27781270402163,41
30773,2021,7294,"q",0,1455,2,3.5,-0.813825211341897,0.124130376962101,42
30774,2021,7300,"q",0,1128,1.5,4,-1.23050371954895,0.591444737290011,43
30775,2021,7304,"q",0,1630,2,3,-0.813825211341897,-0.343183983365809,44
30776,2021,7303,"p",1,1041,3.5,4,0.436210313279257,0.591444737290011,45
30777,2021,7296,"p",1,1254,3,1.5,0.0195318050722055,-1.74512706434954,46
30778,2021,7298,"q",0,1231,2,4,-0.813825211341897,0.591444737290011,47
30779,2021,7291,"p",1,1038,4.5,1.5,1.26956732969336,-1.74512706434954,48
30812,2021,7317,"q",0,1181,2,5,-0.813825211341897,1.52607345794583,49
30813,2021,7314,"q",0,1080,1,5,-1.647182227756,1.52607345794583,50
30814,2021,7311,"q",0,990,2,3,-0.813825211341897,-0.343183983365809,51
30815,2021,7316,"p",1,1838,2,3,-0.813825211341897,-0.343183983365809,52
30816,2021,7310,"p",1,1078,4,4.5,0.852888821486308,1.05875909761792,53
30817,2021,7318,"p",1,950,5,1.5,1.68624583790041,-1.74512706434954,54
30818,2021,7312,"p",1,849,1.5,3.5,-1.23050371954895,0.124130376962101,55
30819,2021,7313,"p",1,943,3.5,2.5,0.436210313279257,-0.810498343693718,56
30820,2021,7319,"p",1,1344,4.5,3.5,1.26956732969336,0.124130376962101,57
30821,2021,7305,"p",1,1156,4.5,1.5,1.26956732969336,-1.74512706434954,58
30822,2021,7307,"p",1,1914,1.5,3.5,-1.23050371954895,0.124130376962101,59
30823,2021,7308,"p",1,1355,4,3.5,0.852888821486308,0.124130376962101,60
30824,2021,7315,"p",1,914,5,2.5,1.68624583790041,-0.810498343693718,61
30825,2021,7306,"q",0,1099,1.5,5,-1.23050371954895,1.52607345794583,62
30826,2021,7320,"q",0,1131,2,5,-0.813825211341897,1.52607345794583,63
30827,2021,7309,"p",1,1659,3.5,3.5,0.436210313279257,0.124130376962101,64
30844,2034,7261,"p",0,6638,2.5,5,-0.397146703134846,1.52607345794583,1
30845,2034,7270,"p",0,1526,1.5,4.5,-1.23050371954895,1.05875909761792,2
30846,2034,7269,"q",1,1087,4,3.5,0.852888821486308,0.124130376962101,3
30847,2034,7272,"q",1,1616,2,4,-0.813825211341897,0.591444737290011,4
30848,2034,7258,"q",1,3974,4.5,1.5,1.26956732969336,-1.74512706434954,5
30849,2034,7268,"p",0,900,3.5,4,0.436210313279257,0.591444737290011,6
30850,2034,7260,"q",1,1304,3.5,1.5,0.436210313279257,-1.74512706434954,7
30851,2034,7262,"p",0,1243,1,5,-1.647182227756,1.52607345794583,8
30852,2034,7263,"q",1,2291,4,4,0.852888821486308,0.591444737290011,9
30853,2034,7267,"p",0,2862,2.5,4,-0.397146703134846,0.591444737290011,10
30854,2034,7266,"p",0,1312,4.5,1.5,1.26956732969336,-1.74512706434954,11
30855,2034,7265,"p",0,1396,2.5,4.5,-0.397146703134846,1.05875909761792,12
30856,2034,7257,"q",1,2523,2,4,-0.813825211341897,0.591444737290011,13
30857,2034,7259,"p",0,854,3.5,3,0.436210313279257,-0.343183983365809,14
30858,2034,7264,"p",0,1240,2,4,-0.813825211341897,0.591444737290011,15
30859,2034,7271,"p",0,1289,5,1,1.68624583790041,-2.21244142467745,16
30907,2034,7284,"q",1,2270,4.5,4,1.26956732969336,0.591444737290011,17
30908,2034,7274,"p",0,5448,2,4,-0.813825211341897,0.591444737290011,18
30909,2034,7281,"q",1,2192,1.5,3,-1.23050371954895,-0.343183983365809,19
30910,2034,7279,"q",1,1175,3,4,0.0195318050722055,0.591444737290011,20
30911,2034,7285,"q",1,1255,3,4,0.0195318050722055,0.591444737290011,21
30912,2034,7275,"q",1,1829,4.5,3,1.26956732969336,-0.343183983365809,22
30913,2034,7276,"p",0,4907,3,2.5,0.0195318050722055,-0.810498343693718,23
30914,2034,7286,"p",0,1108,2,4,-0.813825211341897,0.591444737290011,24
30915,2034,7288,"p",0,2235,2,3,-0.813825211341897,-0.343183983365809,25
30916,2034,7287,"q",1,1901,4,2,0.852888821486308,-1.27781270402163,26
30917,2034,7278,"q",1,2963,2,4,-0.813825211341897,0.591444737290011,27
30918,2034,7277,"p",0,1527,1,5,-1.647182227756,1.52607345794583,28
30919,2034,7280,"p",0,1399,4.5,2,1.26956732969336,-1.27781270402163,29
30920,2034,7283,"q",1,2016,4,3.5,0.852888821486308,0.124130376962101,30
30921,2034,7282,"q",1,1771,4.5,2,1.26956732969336,-1.27781270402163,31
30922,2034,7273,"p",0,1675,2,4,-0.813825211341897,0.591444737290011,32
31019,2034,7293,"p",0,2570,4,3.5,0.852888821486308,0.124130376962101,33
31020,2034,7298,"p",0,1236,2,4,-0.813825211341897,0.591444737290011,34
31021,2034,7296,"p",0,3109,3,1.5,0.0195318050722055,-1.74512706434954,35
31022,2034,7299,"q",1,1734,4.5,2,1.26956732969336,-1.27781270402163,36
31023,2034,7304,"p",0,1766,2,3,-0.813825211341897,-0.343183983365809,37
31024,2034,7291,"q",1,1451,4.5,1.5,1.26956732969336,-1.74512706434954,38
31025,2034,7297,"q",1,1416,4,3.5,0.852888821486308,0.124130376962101,39
31026,2034,7301,"p",0,1237,3.5,3.5,0.436210313279257,0.124130376962101,40
31027,2034,7300,"p",0,1253,1.5,4,-1.23050371954895,0.591444737290011,41
31028,2034,7292,"p",0,854,1.5,3.5,-1.23050371954895,0.124130376962101,42
31029,2034,7290,"q",1,983,2,4,-0.813825211341897,0.591444737290011,43
31030,2034,7303,"q",1,2403,3.5,4,0.436210313279257,0.591444737290011,44
31031,2034,7302,"q",1,3970,2,4,-0.813825211341897,0.591444737290011,45
31032,2034,7295,"q",1,1591,4,2.5,0.852888821486308,-0.810498343693718,46
31033,2034,7289,"p",0,1712,3,2.5,0.0195318050722055,-0.810498343693718,47
31034,2034,7294,"p",0,1555,2,3.5,-0.813825211341897,0.124130376962101,48
31131,2034,7308,"q",1,1647,4,3.5,0.852888821486308,0.124130376962101,49
31132,2034,7307,"p",0,2167,1.5,3.5,-1.23050371954895,0.124130376962101,50
31133,2034,7314,"p",0,1193,1,5,-1.647182227756,1.52607345794583,51
31134,2034,7320,"q",1,2536,2,5,-0.813825211341897,1.52607345794583,52
31135,2034,7315,"q",1,2073,5,2.5,1.68624583790041,-0.810498343693718,53
31136,2034,7306,"q",1,1638,1.5,5,-1.23050371954895,1.52607345794583,54
31137,2034,7310,"q",1,1559,4,4.5,0.852888821486308,1.05875909761792,55
31138,2034,7311,"q",1,1499,2,3,-0.813825211341897,-0.343183983365809,56
31139,2034,7317,"q",1,1114,2,5,-0.813825211341897,1.52607345794583,57
31140,2034,7305,"p",0,2853,4.5,1.5,1.26956732969336,-1.74512706434954,58
31141,2034,7313,"q",1,1738,3.5,2.5,0.436210313279257,-0.810498343693718,59
31142,2034,7316,"p",0,3409,2,3,-0.813825211341897,-0.343183983365809,60
31143,2034,7312,"p",0,1247,1.5,3.5,-1.23050371954895,0.124130376962101,61
31144,2034,7319,"q",1,1222,4.5,3.5,1.26956732969336,0.124130376962101,62
31145,2034,7309,"q",1,984,3.5,3.5,0.436210313279257,0.124130376962101,63
31146,2034,7318,"q",1,1723,5,1.5,1.68624583790041,-1.74512706434954,64
30828,2035,7257,"q",0,3075,2,4,-0.813825211341897,0.591444737290011,1
30829,2035,7263,"q",0,3354,4,4,0.852888821486308,0.591444737290011,2
30830,2035,7267,"p",1,1607,2.5,4,-0.397146703134846,0.591444737290011,3
30831,2035,7260,"p",1,1204,3.5,1.5,0.436210313279257,-1.74512706434954,4
30832,2035,7272,"p",1,1081,2,4,-0.813825211341897,0.591444737290011,5
30833,2035,7271,"p",1,1477,5,1,1.68624583790041,-2.21244142467745,6
30834,2035,7268,"p",1,2044,3.5,4,0.436210313279257,0.591444737290011,7
30835,2035,7264,"p",1,962,2,4,-0.813825211341897,0.591444737290011,8
30836,2035,7262,"q",0,989,1,5,-1.647182227756,1.52607345794583,9
30837,2035,7269,"p",1,1228,4,3.5,0.852888821486308,0.124130376962101,10
30838,2035,7259,"p",1,1751,3.5,3,0.436210313279257,-0.343183983365809,11
30839,2035,7261,"p",1,989,2.5,5,-0.397146703134846,1.52607345794583,12
30840,2035,7270,"q",0,2423,1.5,4.5,-1.23050371954895,1.05875909761792,13
30841,2035,7265,"q",0,1312,2.5,4.5,-0.397146703134846,1.05875909761792,14
30842,2035,7258,"p",1,1730,4.5,1.5,1.26956732969336,-1.74512706434954,15
30843,2035,7266,"p",1,894,4.5,1.5,1.26956732969336,-1.74512706434954,16
30876,2035,7276,"p",1,2481,3,2.5,0.0195318050722055,-0.810498343693718,17
30877,2035,7273,"p",1,4675,2,4,-0.813825211341897,0.591444737290011,18
30878,2035,7285,"p",1,1788,3,4,0.0195318050722055,0.591444737290011,19
30879,2035,7279,"p",1,860,3,4,0.0195318050722055,0.591444737290011,20
30880,2035,7280,"p",1,932,4.5,2,1.26956732969336,-1.27781270402163,21
30881,2035,7281,"p",1,884,1.5,3,-1.23050371954895,-0.343183983365809,22
30882,2035,7274,"p",1,838,2,4,-0.813825211341897,0.591444737290011,23
30883,2035,7277,"q",0,1006,1,5,-1.647182227756,1.52607345794583,24
30884,2035,7282,"q",0,1288,4.5,2,1.26956732969336,-1.27781270402163,25
30885,2035,7284,"p",1,1016,4.5,4,1.26956732969336,0.591444737290011,26
30886,2035,7286,"p",1,1477,2,4,-0.813825211341897,0.591444737290011,27
30887,2035,7278,"p",1,1004,2,4,-0.813825211341897,0.591444737290011,28
30888,2035,7275,"p",1,759,4.5,3,1.26956732969336,-0.343183983365809,29
30889,2035,7287,"p",1,553,4,2,0.852888821486308,-1.27781270402163,30
30890,2035,7283,"p",1,957,4,3.5,0.852888821486308,0.124130376962101,31
30891,2035,7288,"p",1,829,2,3,-0.813825211341897,-0.343183983365809,32
30923,2035,7302,"q",0,2062,2,4,-0.813825211341897,0.591444737290011,33
30924,2035,7299,"p",1,1380,4.5,2,1.26956732969336,-1.27781270402163,34
30925,2035,7294,"q",0,1219,2,3.5,-0.813825211341897,0.124130376962101,35
30926,2035,7296,"q",0,2125,3,1.5,0.0195318050722055,-1.74512706434954,36
30927,2035,7301,"p",1,1266,3.5,3.5,0.436210313279257,0.124130376962101,37
30928,2035,7292,"q",0,2026,1.5,3.5,-1.23050371954895,0.124130376962101,38
30929,2035,7303,"p",1,1255,3.5,4,0.436210313279257,0.591444737290011,39
30930,2035,7298,"q",0,1425,2,4,-0.813825211341897,0.591444737290011,40
30931,2035,7289,"q",0,905,3,2.5,0.0195318050722055,-0.810498343693718,41
30932,2035,7290,"q",0,641,2,4,-0.813825211341897,0.591444737290011,42
30933,2035,7295,"q",0,2557,4,2.5,0.852888821486308,-0.810498343693718,43
30934,2035,7291,"p",1,1063,4.5,1.5,1.26956732969336,-1.74512706434954,44
30935,2035,7300,"q",0,1013,1.5,4,-1.23050371954895,0.591444737290011,45
30936,2035,7304,"q",0,1414,2,3,-0.813825211341897,-0.343183983365809,46
30937,2035,7297,"p",1,1469,4,3.5,0.852888821486308,0.124130376962101,47
30938,2035,7293,"q",0,2093,4,3.5,0.852888821486308,0.124130376962101,48
31035,2035,7309,"p",1,2502,3.5,3.5,0.436210313279257,0.124130376962101,49
31036,2035,7319,"p",1,7438,4.5,3.5,1.26956732969336,0.124130376962101,50
31037,2035,7314,"q",0,2169,1,5,-1.647182227756,1.52607345794583,51
31038,2035,7320,"p",1,2043,2,5,-0.813825211341897,1.52607345794583,52
31039,2035,7317,"p",1,1093,2,5,-0.813825211341897,1.52607345794583,53
31040,2035,7313,"p",1,1184,3.5,2.5,0.436210313279257,-0.810498343693718,54
31041,2035,7307,"q",0,2251,1.5,3.5,-1.23050371954895,0.124130376962101,55
31042,2035,7318,"p",1,1176,5,1.5,1.68624583790041,-1.74512706434954,56
31043,2035,7306,"p",1,1022,1.5,5,-1.23050371954895,1.52607345794583,57
31044,2035,7312,"q",0,1040,1.5,3.5,-1.23050371954895,0.124130376962101,58
31045,2035,7308,"p",1,1459,4,3.5,0.852888821486308,0.124130376962101,59
31046,2035,7311,"q",0,838,2,3,-0.813825211341897,-0.343183983365809,60
31047,2035,7315,"q",0,1134,5,2.5,1.68624583790041,-0.810498343693718,61
31048,2035,7316,"q",0,2030,2,3,-0.813825211341897,-0.343183983365809,62
31049,2035,7310,"p",1,933,4,4.5,0.852888821486308,1.05875909761792,63
31050,2035,7305,"p",1,851,4.5,1.5,1.26956732969336,-1.74512706434954,64
30860,2037,7272,"p",1,6384,2,4,-0.813825211341897,0.591444737290011,1
30861,2037,7261,"p",1,1616,2.5,5,-0.397146703134846,1.52607345794583,2
30862,2037,7265,"p",1,3119,2.5,4.5,-0.397146703134846,1.05875909761792,3
30863,2037,7263,"p",1,1629,4,4,0.852888821486308,0.591444737290011,4
30864,2037,7269,"q",0,3933,4,3.5,0.852888821486308,0.124130376962101,5
30865,2037,7270,"q",0,1649,1.5,4.5,-1.23050371954895,1.05875909761792,6
30866,2037,7271,"p",1,1740,5,1,1.68624583790041,-2.21244142467745,7
30867,2037,7262,"q",0,1251,1,5,-1.647182227756,1.52607345794583,8
30868,2037,7260,"p",1,2564,3.5,1.5,0.436210313279257,-1.74512706434954,9
30869,2037,7257,"q",0,4204,2,4,-0.813825211341897,0.591444737290011,10
30870,2037,7264,"p",1,1811,2,4,-0.813825211341897,0.591444737290011,11
30871,2037,7266,"q",0,2891,4.5,1.5,1.26956732969336,-1.74512706434954,12
30872,2037,7267,"p",1,2391,2.5,4,-0.397146703134846,0.591444737290011,13
30873,2037,7268,"p",1,1458,3.5,4,0.436210313279257,0.591444737290011,14
30874,2037,7259,"q",0,2676,3.5,3,0.436210313279257,-0.343183983365809,15
30875,2037,7258,"p",1,2398,4.5,1.5,1.26956732969336,-1.74512706434954,16
30955,2037,7278,"q",0,1735,2,4,-0.813825211341897,0.591444737290011,17
30956,2037,7287,"p",1,6569,4,2,0.852888821486308,-1.27781270402163,18
30957,2037,7275,"p",1,1115,4.5,3,1.26956732969336,-0.343183983365809,19
30958,2037,7279,"p",1,1281,3,4,0.0195318050722055,0.591444737290011,20
30959,2037,7276,"p",1,1523,3,2.5,0.0195318050722055,-0.810498343693718,21
30960,2037,7274,"p",1,846,2,4,-0.813825211341897,0.591444737290011,22
30961,2037,7282,"q",0,1200,4.5,2,1.26956732969336,-1.27781270402163,23
30962,2037,7286,"p",1,1341,2,4,-0.813825211341897,0.591444737290011,24
30963,2037,7281,"q",0,1384,1.5,3,-1.23050371954895,-0.343183983365809,25
30964,2037,7288,"p",1,886,2,3,-0.813825211341897,-0.343183983365809,26
30965,2037,7277,"q",0,1973,1,5,-1.647182227756,1.52607345794583,27
30966,2037,7273,"q",0,1763,2,4,-0.813825211341897,0.591444737290011,28
30967,2037,7280,"q",0,1330,4.5,2,1.26956732969336,-1.27781270402163,29
30968,2037,7283,"q",0,3078,4,3.5,0.852888821486308,0.124130376962101,30
30969,2037,7284,"p",1,1437,4.5,4,1.26956732969336,0.591444737290011,31
30970,2037,7285,"p",1,1242,3,4,0.0195318050722055,0.591444737290011,32
31067,2037,7289,"p",1,964,3,2.5,0.0195318050722055,-0.810498343693718,33
31068,2037,7295,"q",0,1396,4,2.5,0.852888821486308,-0.810498343693718,34
31069,2037,7290,"p",1,2370,2,4,-0.813825211341897,0.591444737290011,35
31070,2037,7299,"p",1,1519,4.5,2,1.26956732969336,-1.27781270402163,36
31071,2037,7303,"p",1,5364,3.5,4,0.436210313279257,0.591444737290011,37
31072,2037,7297,"q",0,1565,4,3.5,0.852888821486308,0.124130376962101,38
31073,2037,7300,"q",0,1477,1.5,4,-1.23050371954895,0.591444737290011,39
31074,2037,7293,"p",1,1160,4,3.5,0.852888821486308,0.124130376962101,40
31075,2037,7302,"p",1,970,2,4,-0.813825211341897,0.591444737290011,41
31076,2037,7298,"q",0,3036,2,4,-0.813825211341897,0.591444737290011,42
31077,2037,7291,"q",0,2025,4.5,1.5,1.26956732969336,-1.74512706434954,43
31078,2037,7304,"q",0,1265,2,3,-0.813825211341897,-0.343183983365809,44
31079,2037,7292,"q",0,1218,1.5,3.5,-1.23050371954895,0.124130376962101,45
31080,2037,7294,"p",1,2605,2,3.5,-0.813825211341897,0.124130376962101,46
31081,2037,7301,"p",1,2224,3.5,3.5,0.436210313279257,0.124130376962101,47
31082,2037,7296,"p",1,1187,3,1.5,0.0195318050722055,-1.74512706434954,48
31179,2037,7314,"q",0,1656,1,5,-1.647182227756,1.52607345794583,49
31180,2037,7315,"q",0,1470,5,2.5,1.68624583790041,-0.810498343693718,50
31181,2037,7308,"p",1,1317,4,3.5,0.852888821486308,0.124130376962101,51
31182,2037,7305,"p",1,2548,4.5,1.5,1.26956732969336,-1.74512706434954,52
31183,2037,7317,"p",1,902,2,5,-0.813825211341897,1.52607345794583,53
31184,2037,7306,"p",1,875,1.5,5,-1.23050371954895,1.52607345794583,54
31185,2037,7312,"q",0,1550,1.5,3.5,-1.23050371954895,0.124130376962101,55
31186,2037,7307,"p",1,1443,1.5,3.5,-1.23050371954895,0.124130376962101,56
31187,2037,7318,"q",0,2374,5,1.5,1.68624583790041,-1.74512706434954,57
31188,2037,7313,"q",0,5859,3.5,2.5,0.436210313279257,-0.810498343693718,58
31189,2037,7309,"p",1,1156,3.5,3.5,0.436210313279257,0.124130376962101,59
31190,2037,7320,"p",1,804,2,5,-0.813825211341897,1.52607345794583,60
31191,2037,7311,"q",0,1589,2,3,-0.813825211341897,-0.343183983365809,61
31192,2037,7319,"p",1,1870,4.5,3.5,1.26956732969336,0.124130376962101,62
31193,2037,7310,"p",1,1807,4,4.5,0.852888821486308,1.05875909761792,63
31194,2037,7316,"p",1,1076,2,3,-0.813825211341897,-0.343183983365809,64
30892,2043,7261,"q",0,8514,2.5,5,-0.397146703134846,1.52607345794583,1
30893,2043,7267,"q",0,6353,2.5,4,-0.397146703134846,0.591444737290011,2
30894,2043,7264,"q",0,3123,2,4,-0.813825211341897,0.591444737290011,3
30895,2043,7259,"p",1,2259,3.5,3,0.436210313279257,-0.343183983365809,4
30896,2043,7258,"p",1,3285,4.5,1.5,1.26956732969336,-1.74512706434954,5
30897,2043,7265,"q",0,1282,2.5,4.5,-0.397146703134846,1.05875909761792,6
30898,2043,7272,"q",0,3227,2,4,-0.813825211341897,0.591444737290011,7
30899,2043,7257,"q",0,4420,2,4,-0.813825211341897,0.591444737290011,8
30900,2043,7269,"p",1,2162,4,3.5,0.852888821486308,0.124130376962101,9
30901,2043,7263,"p",1,2768,4,4,0.852888821486308,0.591444737290011,10
30902,2043,7271,"p",1,1447,5,1,1.68624583790041,-2.21244142467745,11
30903,2043,7268,"p",1,3549,3.5,4,0.436210313279257,0.591444737290011,12
30904,2043,7266,"q",0,2658,4.5,1.5,1.26956732969336,-1.74512706434954,13
30905,2043,7260,"p",1,2559,3.5,1.5,0.436210313279257,-1.74512706434954,14
30906,2043,7262,"q",0,880,1,5,-1.647182227756,1.52607345794583,15
30971,2043,7287,"p",1,2450,4,2,0.852888821486308,-1.27781270402163,16
30972,2043,7286,"p",1,1791,2,4,-0.813825211341897,0.591444737290011,17
30973,2043,7276,"p",1,1427,3,2.5,0.0195318050722055,-0.810498343693718,18
30974,2043,7288,"q",0,1753,2,3,-0.813825211341897,-0.343183983365809,19
30975,2043,7275,"p",1,1649,4.5,3,1.26956732969336,-0.343183983365809,20
30976,2043,7279,"q",0,1820,3,4,0.0195318050722055,0.591444737290011,21
30977,2043,7278,"q",0,3196,2,4,-0.813825211341897,0.591444737290011,22
30978,2043,7280,"p",1,1673,4.5,2,1.26956732969336,-1.27781270402163,23
30979,2043,7274,"q",0,1645,2,4,-0.813825211341897,0.591444737290011,24
30980,2043,7281,"q",0,2907,1.5,3,-1.23050371954895,-0.343183983365809,25
30981,2043,7285,"p",1,1526,3,4,0.0195318050722055,0.591444737290011,26
30982,2043,7277,"q",0,2205,1,5,-1.647182227756,1.52607345794583,27
30983,2043,7284,"p",1,1696,4.5,4,1.26956732969336,0.591444737290011,28
30984,2043,7282,"p",1,1396,4.5,2,1.26956732969336,-1.27781270402163,29
30985,2043,7273,"q",0,1702,2,4,-0.813825211341897,0.591444737290011,30
30986,2043,7283,"p",1,2168,4,3.5,0.852888821486308,0.124130376962101,31
31083,2043,7302,"p",1,1859,2,4,-0.813825211341897,0.591444737290011,32
31084,2043,7292,"p",1,1911,1.5,3.5,-1.23050371954895,0.124130376962101,33
31085,2043,7293,"q",0,1651,4,3.5,0.852888821486308,0.124130376962101,34
31086,2043,7301,"p",1,2336,3.5,3.5,0.436210313279257,0.124130376962101,35
31087,2043,7294,"q",0,1182,2,3.5,-0.813825211341897,0.124130376962101,36
31088,2043,7297,"p",1,2381,4,3.5,0.852888821486308,0.124130376962101,37
31089,2043,7295,"q",0,1404,4,2.5,0.852888821486308,-0.810498343693718,38
31090,2043,7298,"q",0,766,2,4,-0.813825211341897,0.591444737290011,39
31091,2043,7291,"p",1,1248,4.5,1.5,1.26956732969336,-1.74512706434954,40
31092,2043,7299,"p",1,1280,4.5,2,1.26956732969336,-1.27781270402163,41
31093,2043,7304,"q",0,3219,2,3,-0.813825211341897,-0.343183983365809,42
31094,2043,7289,"q",0,1451,3,2.5,0.0195318050722055,-0.810498343693718,43
31095,2043,7296,"p",1,1202,3,1.5,0.0195318050722055,-1.74512706434954,44
31096,2043,7300,"q",0,1165,1.5,4,-1.23050371954895,0.591444737290011,45
31097,2043,7290,"q",0,900,2,4,-0.813825211341897,0.591444737290011,46
31098,2043,7303,"q",0,1033,3.5,4,0.436210313279257,0.591444737290011,47
31243,2043,7320,"p",1,4887,2,5,-0.813825211341897,1.52607345794583,48
31244,2043,7313,"p",1,1613,3.5,2.5,0.436210313279257,-0.810498343693718,49
31245,2043,7309,"q",0,1551,3.5,3.5,0.436210313279257,0.124130376962101,50
31246,2043,7311,"q",0,1229,2,3,-0.813825211341897,-0.343183983365809,51
31247,2043,7315,"p",1,986,5,2.5,1.68624583790041,-0.810498343693718,52
31248,2043,7314,"q",0,1344,1,5,-1.647182227756,1.52607345794583,53
31249,2043,7308,"p",1,1420,4,3.5,0.852888821486308,0.124130376962101,54
31250,2043,7318,"p",1,1367,5,1.5,1.68624583790041,-1.74512706434954,55
31251,2043,7305,"q",0,1561,4.5,1.5,1.26956732969336,-1.74512706434954,56
31252,2043,7319,"q",0,2543,4.5,3.5,1.26956732969336,0.124130376962101,57
31253,2043,7317,"q",0,1563,2,5,-0.813825211341897,1.52607345794583,58
31254,2043,7307,"q",0,1550,1.5,3.5,-1.23050371954895,0.124130376962101,59
31255,2043,7306,"q",0,1331,1.5,5,-1.23050371954895,1.52607345794583,60
31256,2043,7316,"q",0,983,2,3,-0.813825211341897,-0.343183983365809,61
31257,2043,7310,"p",1,1361,4,4.5,0.852888821486308,1.05875909761792,62
31258,2043,7312,"q",0,838,1.5,3.5,-1.23050371954895,0.124130376962101,63
30939,2046,7261,"q",1,5665,2.5,5,-0.397146703134846,1.52607345794583,1
30940,2046,7269,"q",1,3525,4,3.5,0.852888821486308,0.124130376962101,2
30941,2046,7272,"p",0,1462,2,4,-0.813825211341897,0.591444737290011,3
30942,2046,7268,"q",1,3325,3.5,4,0.436210313279257,0.591444737290011,4
30943,2046,7262,"q",1,4940,1,5,-1.647182227756,1.52607345794583,5
30944,2046,7258,"q",1,2386,4.5,1.5,1.26956732969336,-1.74512706434954,6
30945,2046,7260,"q",1,1175,3.5,1.5,0.436210313279257,-1.74512706434954,7
30946,2046,7265,"p",0,863,2.5,4.5,-0.397146703134846,1.05875909761792,8
30947,2046,7271,"p",0,813,5,1,1.68624583790041,-2.21244142467745,9
30948,2046,7267,"p",0,1315,2.5,4,-0.397146703134846,0.591444737290011,10
30949,2046,7257,"p",0,1933,2,4,-0.813825211341897,0.591444737290011,11
30950,2046,7266,"q",1,1933,4.5,1.5,1.26956732969336,-1.74512706434954,12
30951,2046,7263,"p",0,2897,4,4,0.852888821486308,0.591444737290011,13
30952,2046,7259,"p",0,1014,3.5,3,0.436210313279257,-0.343183983365809,14
30953,2046,7264,"p",0,894,2,4,-0.813825211341897,0.591444737290011,15
30954,2046,7270,"p",0,950,1.5,4.5,-1.23050371954895,1.05875909761792,16
31051,2046,7288,"q",1,1360,2,3,-0.813825211341897,-0.343183983365809,17
31052,2046,7284,"q",1,1707,4.5,4,1.26956732969336,0.591444737290011,18
31053,2046,7286,"p",0,946,2,4,-0.813825211341897,0.591444737290011,19
31054,2046,7278,"p",0,2108,2,4,-0.813825211341897,0.591444737290011,20
31055,2046,7276,"q",1,1417,3,2.5,0.0195318050722055,-0.810498343693718,21
31056,2046,7285,"q",1,1214,3,4,0.0195318050722055,0.591444737290011,22
31057,2046,7281,"p",0,4009,1.5,3,-1.23050371954895,-0.343183983365809,23
31058,2046,7273,"q",1,1458,2,4,-0.813825211341897,0.591444737290011,24
31059,2046,7280,"p",0,1278,4.5,2,1.26956732969336,-1.27781270402163,25
31060,2046,7279,"q",1,1254,3,4,0.0195318050722055,0.591444737290011,26
31061,2046,7282,"q",1,3038,4.5,2,1.26956732969336,-1.27781270402163,27
31062,2046,7274,"p",0,1491,2,4,-0.813825211341897,0.591444737290011,28
31063,2046,7277,"p",0,1570,1,5,-1.647182227756,1.52607345794583,29
31064,2046,7287,"p",0,2692,4,2,0.852888821486308,-1.27781270402163,30
31065,2046,7275,"p",0,1218,4.5,3,1.26956732969336,-0.343183983365809,31
31066,2046,7283,"q",1,3240,4,3.5,0.852888821486308,0.124130376962101,32
31163,2046,7302,"p",0,1455,2,4,-0.813825211341897,0.591444737290011,33
31164,2046,7290,"p",0,1258,2,4,-0.813825211341897,0.591444737290011,34
31165,2046,7301,"q",1,1588,3.5,3.5,0.436210313279257,0.124130376962101,35
31166,2046,7292,"p",0,1843,1.5,3.5,-1.23050371954895,0.124130376962101,36
31167,2046,7304,"p",0,863,2,3,-0.813825211341897,-0.343183983365809,37
31168,2046,7303,"p",0,1339,3.5,4,0.436210313279257,0.591444737290011,38
31169,2046,7293,"p",0,999,4,3.5,0.852888821486308,0.124130376962101,39
31170,2046,7294,"q",1,2118,2,3.5,-0.813825211341897,0.124130376962101,40
31171,2046,7300,"q",1,2192,1.5,4,-1.23050371954895,0.591444737290011,41
31172,2046,7295,"p",0,1510,4,2.5,0.852888821486308,-0.810498343693718,42
31173,2046,7298,"p",0,999,2,4,-0.813825211341897,0.591444737290011,43
31174,2046,7291,"p",0,3531,4.5,1.5,1.26956732969336,-1.74512706434954,44
31175,2046,7297,"p",0,1688,4,3.5,0.852888821486308,0.124130376962101,45
31176,2046,7289,"p",0,2880,3,2.5,0.0195318050722055,-0.810498343693718,46
31177,2046,7299,"p",0,1140,4.5,2,1.26956732969336,-1.27781270402163,47
31178,2046,7296,"p",0,959,3,1.5,0.0195318050722055,-1.74512706434954,48
31322,2046,7307,"q",1,4737,1.5,3.5,-1.23050371954895,0.124130376962101,49
31323,2046,7305,"q",1,1825,4.5,1.5,1.26956732969336,-1.74512706434954,50
31324,2046,7313,"p",0,784,3.5,2.5,0.436210313279257,-0.810498343693718,51
31325,2046,7319,"p",0,1035,4.5,3.5,1.26956732969336,0.124130376962101,52
31326,2046,7311,"p",0,1902,2,3,-0.813825211341897,-0.343183983365809,53
31327,2046,7317,"p",0,749,2,5,-0.813825211341897,1.52607345794583,54
31328,2046,7314,"p",0,1287,1,5,-1.647182227756,1.52607345794583,55
31329,2046,7310,"p",0,1523,4,4.5,0.852888821486308,1.05875909761792,56
31330,2046,7309,"q",1,1429,3.5,3.5,0.436210313279257,0.124130376962101,57
31331,2046,7320,"p",0,943,2,5,-0.813825211341897,1.52607345794583,58
31332,2046,7316,"p",0,733,2,3,-0.813825211341897,-0.343183983365809,59
31333,2046,7318,"q",1,1296,5,1.5,1.68624583790041,-1.74512706434954,60
31334,2046,7308,"q",1,5728,4,3.5,0.852888821486308,0.124130376962101,61
31335,2046,7315,"p",0,745,5,2.5,1.68624583790041,-0.810498343693718,62
31336,2046,7312,"p",0,2155,1.5,3.5,-1.23050371954895,0.124130376962101,63
31337,2046,7306,"p",0,1572,1.5,5,-1.23050371954895,1.52607345794583,64
30987,2049,7259,"p",1,3290,3.5,3,0.436210313279257,-0.343183983365809,1
30988,2049,7261,"p",1,1660,2.5,5,-0.397146703134846,1.52607345794583,2
30989,2049,7262,"p",1,839,1,5,-1.647182227756,1.52607345794583,3
30990,2049,7265,"q",0,1372,2.5,4.5,-0.397146703134846,1.05875909761792,4
30991,2049,7264,"q",0,2089,2,4,-0.813825211341897,0.591444737290011,5
30992,2049,7272,"p",1,1714,2,4,-0.813825211341897,0.591444737290011,6
30993,2049,7260,"p",1,2249,3.5,1.5,0.436210313279257,-1.74512706434954,7
30994,2049,7266,"q",0,1344,4.5,1.5,1.26956732969336,-1.74512706434954,8
30995,2049,7269,"p",1,1525,4,3.5,0.852888821486308,0.124130376962101,9
30996,2049,7257,"p",1,2901,2,4,-0.813825211341897,0.591444737290011,10
30997,2049,7268,"p",1,1321,3.5,4,0.436210313279257,0.591444737290011,11
30998,2049,7267,"p",1,1549,2.5,4,-0.397146703134846,0.591444737290011,12
30999,2049,7270,"q",0,3216,1.5,4.5,-1.23050371954895,1.05875909761792,13
31000,2049,7258,"q",0,1159,4.5,1.5,1.26956732969336,-1.74512706434954,14
31001,2049,7263,"p",1,1557,4,4,0.852888821486308,0.591444737290011,15
31002,2049,7271,"p",1,1751,5,1,1.68624583790041,-2.21244142467745,16
31099,2049,7277,"q",0,2360,1,5,-1.647182227756,1.52607345794583,17
31100,2049,7278,"q",0,2789,2,4,-0.813825211341897,0.591444737290011,18
31101,2049,7283,"p",1,1691,4,3.5,0.852888821486308,0.124130376962101,19
31102,2049,7282,"p",1,1901,4.5,2,1.26956732969336,-1.27781270402163,20
31103,2049,7276,"p",1,2245,3,2.5,0.0195318050722055,-0.810498343693718,21
31104,2049,7280,"p",1,1451,4.5,2,1.26956732969336,-1.27781270402163,22
31105,2049,7287,"p",1,1309,4,2,0.852888821486308,-1.27781270402163,23
31106,2049,7279,"q",0,1817,3,4,0.0195318050722055,0.591444737290011,24
31107,2049,7284,"p",1,1479,4.5,4,1.26956732969336,0.591444737290011,25
31108,2049,7281,"q",0,1978,1.5,3,-1.23050371954895,-0.343183983365809,26
31109,2049,7273,"p",1,3181,2,4,-0.813825211341897,0.591444737290011,27
31110,2049,7288,"p",1,947,2,3,-0.813825211341897,-0.343183983365809,28
31111,2049,7275,"p",1,1545,4.5,3,1.26956732969336,-0.343183983365809,29
31112,2049,7286,"p",1,923,2,4,-0.813825211341897,0.591444737290011,30
31113,2049,7274,"q",0,2000,2,4,-0.813825211341897,0.591444737290011,31
31114,2049,7285,"p",1,1180,3,4,0.0195318050722055,0.591444737290011,32
31275,2049,7296,"p",1,1611,3,1.5,0.0195318050722055,-1.74512706434954,33
31276,2049,7298,"q",0,1087,2,4,-0.813825211341897,0.591444737290011,34
31277,2049,7294,"q",0,2370,2,3.5,-0.813825211341897,0.124130376962101,35
31278,2049,7289,"q",0,1657,3,2.5,0.0195318050722055,-0.810498343693718,36
31279,2049,7304,"p",1,1655,2,3,-0.813825211341897,-0.343183983365809,37
31280,2049,7293,"q",0,1745,4,3.5,0.852888821486308,0.124130376962101,38
31281,2049,7295,"p",1,1242,4,2.5,0.852888821486308,-0.810498343693718,39
31282,2049,7302,"p",1,1102,2,4,-0.813825211341897,0.591444737290011,40
31283,2049,7303,"p",1,1094,3.5,4,0.436210313279257,0.591444737290011,41
31284,2049,7299,"p",1,90,4.5,2,1.26956732969336,-1.27781270402163,42
31285,2049,7292,"p",1,1539,1.5,3.5,-1.23050371954895,0.124130376962101,43
31286,2049,7300,"p",1,1639,1.5,4,-1.23050371954895,0.591444737290011,44
31287,2049,7290,"p",1,889,2,4,-0.813825211341897,0.591444737290011,45
31288,2049,7291,"p",1,2604,4.5,1.5,1.26956732969336,-1.74512706434954,46
31289,2049,7301,"q",0,2073,3.5,3.5,0.436210313279257,0.124130376962101,47
31417,2049,7306,"q",0,2377,1.5,5,-1.23050371954895,1.52607345794583,48
31418,2049,7308,"p",1,1057,4,3.5,0.852888821486308,0.124130376962101,49
31419,2049,7317,"q",0,1236,2,5,-0.813825211341897,1.52607345794583,50
31420,2049,7309,"p",1,1102,3.5,3.5,0.436210313279257,0.124130376962101,51
31421,2049,7319,"p",1,1672,4.5,3.5,1.26956732969336,0.124130376962101,52
31422,2049,7316,"q",0,2307,2,3,-0.813825211341897,-0.343183983365809,53
31423,2049,7307,"q",0,1895,1.5,3.5,-1.23050371954895,0.124130376962101,54
31424,2049,7314,"p",1,1642,1,5,-1.647182227756,1.52607345794583,55
31425,2049,7313,"p",1,3211,3.5,2.5,0.436210313279257,-0.810498343693718,56
31426,2049,7320,"p",1,1030,2,5,-0.813825211341897,1.52607345794583,57
31427,2049,7311,"p",1,1103,2,3,-0.813825211341897,-0.343183983365809,58
31428,2049,7305,"p",1,1453,4.5,1.5,1.26956732969336,-1.74512706434954,59
31429,2049,7312,"q",0,1267,1.5,3.5,-1.23050371954895,0.124130376962101,60
31430,2049,7310,"p",1,1429,4,4.5,0.852888821486308,1.05875909761792,61
31431,2049,7318,"q",0,1350,5,1.5,1.68624583790041,-1.74512706434954,62
31432,2049,7315,"p",1,1026,5,2.5,1.68624583790041,-0.810498343693718,63
31003,2051,7257,"q",0,3542,2,4,-0.813825211341897,0.591444737290011,1
31004,2051,7265,"q",0,3251,2.5,4.5,-0.397146703134846,1.05875909761792,2
31005,2051,7270,"q",0,1376,1.5,4.5,-1.23050371954895,1.05875909761792,3
31006,2051,7266,"p",1,1302,4.5,1.5,1.26956732969336,-1.74512706434954,4
31007,2051,7260,"p",1,873,3.5,1.5,0.436210313279257,-1.74512706434954,5
31008,2051,7269,"p",1,980,4,3.5,0.852888821486308,0.124130376962101,6
31009,2051,7259,"p",1,856,3.5,3,0.436210313279257,-0.343183983365809,7
31010,2051,7272,"p",1,994,2,4,-0.813825211341897,0.591444737290011,8
31011,2051,7267,"p",1,2995,2.5,4,-0.397146703134846,0.591444737290011,9
31012,2051,7263,"p",1,1603,4,4,0.852888821486308,0.591444737290011,10
31013,2051,7264,"q",0,1224,2,4,-0.813825211341897,0.591444737290011,11
31014,2051,7258,"q",0,1030,4.5,1.5,1.26956732969336,-1.74512706434954,12
31015,2051,7261,"p",1,921,2.5,5,-0.397146703134846,1.52607345794583,13
31016,2051,7268,"p",1,1593,3.5,4,0.436210313279257,0.591444737290011,14
31017,2051,7271,"p",1,1265,5,1,1.68624583790041,-2.21244142467745,15
31018,2051,7262,"q",0,1312,1,5,-1.647182227756,1.52607345794583,16
31115,2051,7284,"q",0,1548,4.5,4,1.26956732969336,0.591444737290011,17
31116,2051,7277,"q",0,1204,1,5,-1.647182227756,1.52607345794583,18
31117,2051,7275,"q",0,1867,4.5,3,1.26956732969336,-0.343183983365809,19
31118,2051,7286,"p",1,735,2,4,-0.813825211341897,0.591444737290011,20
31119,2051,7278,"q",0,1696,2,4,-0.813825211341897,0.591444737290011,21
31120,2051,7288,"p",1,1429,2,3,-0.813825211341897,-0.343183983365809,22
31121,2051,7279,"p",1,1485,3,4,0.0195318050722055,0.591444737290011,23
31122,2051,7280,"q",0,1529,4.5,2,1.26956732969336,-1.27781270402163,24
31123,2051,7281,"q",0,1302,1.5,3,-1.23050371954895,-0.343183983365809,25
31124,2051,7285,"p",1,2539,3,4,0.0195318050722055,0.591444737290011,26
31125,2051,7282,"q",0,1168,4.5,2,1.26956732969336,-1.27781270402163,27
31126,2051,7276,"q",0,1179,3,2.5,0.0195318050722055,-0.810498343693718,28
31127,2051,7273,"q",0,1546,2,4,-0.813825211341897,0.591444737290011,29
31128,2051,7274,"p",1,679,2,4,-0.813825211341897,0.591444737290011,30
31129,2051,7283,"q",0,1673,4,3.5,0.852888821486308,0.124130376962101,31
31130,2051,7287,"q",0,1175,4,2,0.852888821486308,-1.27781270402163,32
31259,2051,7299,"q",0,3504,4.5,2,1.26956732969336,-1.27781270402163,33
31260,2051,7294,"p",1,2576,2,3.5,-0.813825211341897,0.124130376962101,34
31261,2051,7300,"q",0,1152,1.5,4,-1.23050371954895,0.591444737290011,35
31262,2051,7297,"q",0,1642,4,3.5,0.852888821486308,0.124130376962101,36
31263,2051,7304,"q",0,1386,2,3,-0.813825211341897,-0.343183983365809,37
31264,2051,7298,"q",0,769,2,4,-0.813825211341897,0.591444737290011,38
31265,2051,7291,"p",1,1511,4.5,1.5,1.26956732969336,-1.74512706434954,39
31266,2051,7296,"p",1,1104,3,1.5,0.0195318050722055,-1.74512706434954,40
31267,2051,7301,"q",0,841,3.5,3.5,0.436210313279257,0.124130376962101,41
31268,2051,7295,"p",1,1210,4,2.5,0.852888821486308,-0.810498343693718,42
31269,2051,7303,"p",1,1405,3.5,4,0.436210313279257,0.591444737290011,43
31270,2051,7293,"p",1,1061,4,3.5,0.852888821486308,0.124130376962101,44
31271,2051,7302,"p",1,1318,2,4,-0.813825211341897,0.591444737290011,45
31272,2051,7289,"q",0,1172,3,2.5,0.0195318050722055,-0.810498343693718,46
31273,2051,7290,"q",0,450,2,4,-0.813825211341897,0.591444737290011,47
31274,2051,7292,"q",0,470,1.5,3.5,-1.23050371954895,0.124130376962101,48
31370,2051,7309,"p",1,1685,3.5,3.5,0.436210313279257,0.124130376962101,49
31371,2051,7307,"q",0,1513,1.5,3.5,-1.23050371954895,0.124130376962101,50
31372,2051,7317,"q",0,2487,2,5,-0.813825211341897,1.52607345794583,51
31373,2051,7308,"q",0,815,4,3.5,0.852888821486308,0.124130376962101,52
31374,2051,7310,"q",0,1595,4,4.5,0.852888821486308,1.05875909761792,53
31375,2051,7312,"q",0,1091,1.5,3.5,-1.23050371954895,0.124130376962101,54
31376,2051,7311,"q",0,1042,2,3,-0.813825211341897,-0.343183983365809,55
31377,2051,7313,"q",0,1169,3.5,2.5,0.436210313279257,-0.810498343693718,56
31378,2051,7315,"q",0,871,5,2.5,1.68624583790041,-0.810498343693718,57
31379,2051,7314,"q",0,819,1,5,-1.647182227756,1.52607345794583,58
31380,2051,7305,"q",0,1305,4.5,1.5,1.26956732969336,-1.74512706434954,59
31381,2051,7319,"p",1,836,4.5,3.5,1.26956732969336,0.124130376962101,60
31382,2051,7320,"p",1,1002,2,5,-0.813825211341897,1.52607345794583,61
31383,2051,7316,"q",0,642,2,3,-0.813825211341897,-0.343183983365809,62
31384,2051,7318,"p",1,643,5,1.5,1.68624583790041,-1.74512706434954,63
31385,2051,7306,"q",0,427,1.5,5,-1.23050371954895,1.52607345794583,64
31195,2059,7257,"p",1,5613,2,4,-0.813825211341897,0.591444737290011,1
31196,2059,7265,"q",0,3526,2.5,4.5,-0.397146703134846,1.05875909761792,2
31197,2059,7272,"p",1,1416,2,4,-0.813825211341897,0.591444737290011,3
31198,2059,7270,"q",0,1332,1.5,4.5,-1.23050371954895,1.05875909761792,4
31199,2059,7268,"p",1,1172,3.5,4,0.436210313279257,0.591444737290011,5
31200,2059,7263,"p",1,1677,4,4,0.852888821486308,0.591444737290011,6
31201,2059,7269,"p",1,2187,4,3.5,0.852888821486308,0.124130376962101,7
31202,2059,7259,"p",1,3289,3.5,3,0.436210313279257,-0.343183983365809,8
